#
# Results on Mon, 25 Apr 2022 12:24:26 GMT
# USER AGENT: Mozilla/5.0 (Macintosh; Intel Mac OS X 10_15_7) AppleWebKit/537.36 (KHTML, like Gecko) Chrome/100.0.4896.60 Safari/537.36
# Design number was non-random = 9
#
# Columns below this comment are as follows:
# 1. Results reception time.
# 2. MD5 hash of participant's IP address.
# 3. Controller name.
# 4. Order number of item.
# 5. Inner element number.
# 6. Label.
# 7. Latin Square Group.
# 8. PennElementType.
# 9. PennElementName.
# 10. Parameter.
# 11. Value.
# 12. EventTime.
# 13. Comments.
1650889466,9895a1f4e63aff1810d9ac5dbd439aa6,PennController,2,0,welcome,NULL,PennController,0,_Trial_,Start,1650888471282,NULL
1650889466,9895a1f4e63aff1810d9ac5dbd439aa6,PennController,2,0,welcome,NULL,PennController,0,_Trial_,End,1650888532885,NULL
1650889466,9895a1f4e63aff1810d9ac5dbd439aa6,PennController,3,0,intro,NULL,PennController,1,_Trial_,Start,1650888532888,NULL
1650889466,9895a1f4e63aff1810d9ac5dbd439aa6,PennController,3,0,intro,NULL,PennController,1,_Trial_,End,1650888624471,NULL
1650889466,9895a1f4e63aff1810d9ac5dbd439aa6,PennController,4,0,data,NULL,PennController,2,_Trial_,Start,1650888624473,NULL
1650889466,9895a1f4e63aff1810d9ac5dbd439aa6,PennController,4,0,data,NULL,PennController,2,_Trial_,End,1650888638459,NULL
# 13. Sentence.
# 14. Condition.
# 15. Item_set.
# 16. Correct.
# 17. Group.
# 18. Comments.
1650889466,9895a1f4e63aff1810d9ac5dbd439aa6,PennController,71,0,critical,NULL,PennController,72,_Trial_,Start,1650888638461,Die Bäckerei hat diesen Sommer geschließen.,filler,137,ungram,D,NULL
1650889466,9895a1f4e63aff1810d9ac5dbd439aa6,PennController,71,0,critical,NULL,Scale,rating,Choice,5,1650888648570,Die Bäckerei hat diesen Sommer geschließen.,filler,137,ungram,D,NULL
1650889466,9895a1f4e63aff1810d9ac5dbd439aa6,PennController,71,0,critical,NULL,PennController,72,_Trial_,End,1650888648572,Die Bäckerei hat diesen Sommer geschließen.,filler,137,ungram,D,NULL
1650889466,9895a1f4e63aff1810d9ac5dbd439aa6,PennController,45,0,critical,NULL,PennController,46,_Trial_,Start,1650888648574,Ich und meine Freundin haben uns schon vor zwei Jahren getrennt.,filler,111,gram,D,NULL
1650889466,9895a1f4e63aff1810d9ac5dbd439aa6,PennController,45,0,critical,NULL,Scale,rating,Choice,5,1650888663708,Ich und meine Freundin haben uns schon vor zwei Jahren getrennt.,filler,111,gram,D,NULL
1650889466,9895a1f4e63aff1810d9ac5dbd439aa6,PennController,45,0,critical,NULL,PennController,46,_Trial_,End,1650888663709,Ich und meine Freundin haben uns schon vor zwei Jahren getrennt.,filler,111,gram,D,NULL
1650889466,9895a1f4e63aff1810d9ac5dbd439aa6,PennController,31,0,critical,NULL,PennController,32,_Trial_,Start,1650888663711,Der Arzt und du habe mit der Diagnose recht gehabt.,32_1,27,ungram,D,NULL
1650889466,9895a1f4e63aff1810d9ac5dbd439aa6,PennController,31,0,critical,NULL,Scale,rating,Choice,1,1650888671127,Der Arzt und du habe mit der Diagnose recht gehabt.,32_1,27,ungram,D,NULL
1650889466,9895a1f4e63aff1810d9ac5dbd439aa6,PennController,31,0,critical,NULL,PennController,32,_Trial_,End,1650888671129,Der Arzt und du habe mit der Diagnose recht gehabt.,32_1,27,ungram,D,NULL
1650889466,9895a1f4e63aff1810d9ac5dbd439aa6,PennController,34,0,critical,NULL,PennController,35,_Trial_,Start,1650888671130,Du und die andere Bewerberin werde bald von uns hören.,23_1,30,ungram,D,NULL
1650889466,9895a1f4e63aff1810d9ac5dbd439aa6,PennController,34,0,critical,NULL,Scale,rating,Choice,3,1650888691264,Du und die andere Bewerberin werde bald von uns hören.,23_1,30,ungram,D,NULL
1650889466,9895a1f4e63aff1810d9ac5dbd439aa6,PennController,34,0,critical,NULL,PennController,35,_Trial_,End,1650888691266,Du und die andere Bewerberin werde bald von uns hören.,23_1,30,ungram,D,NULL
1650889466,9895a1f4e63aff1810d9ac5dbd439aa6,PennController,66,0,critical,NULL,PennController,67,_Trial_,Start,1650888691268,Nicht jede Baum verlieren Blatt im Herbst.,filler,132,ungram,D,NULL
1650889466,9895a1f4e63aff1810d9ac5dbd439aa6,PennController,66,0,critical,NULL,Scale,rating,Choice,5,1650888694849,Nicht jede Baum verlieren Blatt im Herbst.,filler,132,ungram,D,NULL
1650889466,9895a1f4e63aff1810d9ac5dbd439aa6,PennController,66,0,critical,NULL,PennController,67,_Trial_,End,1650888694850,Nicht jede Baum verlieren Blatt im Herbst.,filler,132,ungram,D,NULL
1650889466,9895a1f4e63aff1810d9ac5dbd439aa6,PennController,37,0,critical,NULL,PennController,38,_Trial_,Start,1650888694852,Fast alle Gewerkschaften haben heutzutage nur noch wenige Mitglieder.,filler,103,gram,D,NULL
1650889466,9895a1f4e63aff1810d9ac5dbd439aa6,PennController,37,0,critical,NULL,Scale,rating,Choice,5,1650888701196,Fast alle Gewerkschaften haben heutzutage nur noch wenige Mitglieder.,filler,103,gram,D,NULL
1650889466,9895a1f4e63aff1810d9ac5dbd439aa6,PennController,37,0,critical,NULL,PennController,38,_Trial_,End,1650888701198,Fast alle Gewerkschaften haben heutzutage nur noch wenige Mitglieder.,filler,103,gram,D,NULL
1650889466,9895a1f4e63aff1810d9ac5dbd439aa6,PennController,57,0,critical,NULL,PennController,58,_Trial_,Start,1650888701200,Ein Buch würde sie am liebsten schreiben über die Geschichte Norditaliens.,filler,123,medium,D,NULL
1650889466,9895a1f4e63aff1810d9ac5dbd439aa6,PennController,57,0,critical,NULL,Scale,rating,Choice,3,1650888706312,Ein Buch würde sie am liebsten schreiben über die Geschichte Norditaliens.,filler,123,medium,D,NULL
1650889466,9895a1f4e63aff1810d9ac5dbd439aa6,PennController,57,0,critical,NULL,PennController,58,_Trial_,End,1650888706314,Ein Buch würde sie am liebsten schreiben über die Geschichte Norditaliens.,filler,123,medium,D,NULL
1650889466,9895a1f4e63aff1810d9ac5dbd439aa6,PennController,26,0,critical,NULL,PennController,27,_Trial_,Start,1650888706315,Du und der Anstreicher haben wirklich gute Arbeit geleistet.,23_3,22,gram,D,NULL
1650889466,9895a1f4e63aff1810d9ac5dbd439aa6,PennController,26,0,critical,NULL,Scale,rating,Choice,5,1650888711185,Du und der Anstreicher haben wirklich gute Arbeit geleistet.,23_3,22,gram,D,NULL
1650889466,9895a1f4e63aff1810d9ac5dbd439aa6,PennController,26,0,critical,NULL,PennController,27,_Trial_,End,1650888711187,Du und der Anstreicher haben wirklich gute Arbeit geleistet.,23_3,22,gram,D,NULL
1650889466,9895a1f4e63aff1810d9ac5dbd439aa6,PennController,10,0,critical,NULL,PennController,11,_Trial_,Start,1650888711188,Du und der Junge mache viel zu viel Lärm.,23_1,6,ungram,D,NULL
1650889466,9895a1f4e63aff1810d9ac5dbd439aa6,PennController,10,0,critical,NULL,Scale,rating,Choice,3,1650888716530,Du und der Junge mache viel zu viel Lärm.,23_1,6,ungram,D,NULL
1650889466,9895a1f4e63aff1810d9ac5dbd439aa6,PennController,10,0,critical,NULL,PennController,11,_Trial_,End,1650888716531,Du und der Junge mache viel zu viel Lärm.,23_1,6,ungram,D,NULL
1650889466,9895a1f4e63aff1810d9ac5dbd439aa6,PennController,60,0,critical,NULL,PennController,61,_Trial_,Start,1650888716533,Sowohl Eltern als auch Kinder profitieren durch gesunde Ernährung.,filler,126,medium,D,NULL
1650889466,9895a1f4e63aff1810d9ac5dbd439aa6,PennController,60,0,critical,NULL,Scale,rating,Choice,5,1650888723326,Sowohl Eltern als auch Kinder profitieren durch gesunde Ernährung.,filler,126,medium,D,NULL
1650889466,9895a1f4e63aff1810d9ac5dbd439aa6,PennController,60,0,critical,NULL,PennController,61,_Trial_,End,1650888723327,Sowohl Eltern als auch Kinder profitieren durch gesunde Ernährung.,filler,126,medium,D,NULL
1650889466,9895a1f4e63aff1810d9ac5dbd439aa6,PennController,42,0,critical,NULL,PennController,43,_Trial_,Start,1650888723329,Die Behörden haben weitere Raketenangriffe gemeldet.,filler,108,gram,D,NULL
1650889466,9895a1f4e63aff1810d9ac5dbd439aa6,PennController,42,0,critical,NULL,Scale,rating,Choice,5,1650888735243,Die Behörden haben weitere Raketenangriffe gemeldet.,filler,108,gram,D,NULL
1650889466,9895a1f4e63aff1810d9ac5dbd439aa6,PennController,42,0,critical,NULL,PennController,43,_Trial_,End,1650888735244,Die Behörden haben weitere Raketenangriffe gemeldet.,filler,108,gram,D,NULL
1650889466,9895a1f4e63aff1810d9ac5dbd439aa6,PennController,17,0,critical,NULL,PennController,18,_Trial_,Start,1650888735246,Deine Schwester und du haben immer gerne im Garten gespielt.,32_3,13,gram,D,NULL
1650889466,9895a1f4e63aff1810d9ac5dbd439aa6,PennController,17,0,critical,NULL,Scale,rating,Choice,1,1650888740577,Deine Schwester und du haben immer gerne im Garten gespielt.,32_3,13,gram,D,NULL
1650889466,9895a1f4e63aff1810d9ac5dbd439aa6,PennController,17,0,critical,NULL,PennController,18,_Trial_,End,1650888740579,Deine Schwester und du haben immer gerne im Garten gespielt.,32_3,13,gram,D,NULL
1650889466,9895a1f4e63aff1810d9ac5dbd439aa6,PennController,52,0,critical,NULL,PennController,53,_Trial_,Start,1650888740582,So eine Kampagne gegen sich sollte ihm Sorgen machen.,filler,118,medium,D,NULL
1650889466,9895a1f4e63aff1810d9ac5dbd439aa6,PennController,52,0,critical,NULL,Scale,rating,Choice,3,1650888748383,So eine Kampagne gegen sich sollte ihm Sorgen machen.,filler,118,medium,D,NULL
1650889466,9895a1f4e63aff1810d9ac5dbd439aa6,PennController,52,0,critical,NULL,PennController,53,_Trial_,End,1650888748385,So eine Kampagne gegen sich sollte ihm Sorgen machen.,filler,118,medium,D,NULL
1650889466,9895a1f4e63aff1810d9ac5dbd439aa6,PennController,38,0,critical,NULL,PennController,39,_Trial_,Start,1650888748387,Wir haben keine Zeit für lange Diskussionen.,filler,104,gram,D,NULL
1650889466,9895a1f4e63aff1810d9ac5dbd439aa6,PennController,38,0,critical,NULL,Scale,rating,Choice,5,1650888752071,Wir haben keine Zeit für lange Diskussionen.,filler,104,gram,D,NULL
1650889466,9895a1f4e63aff1810d9ac5dbd439aa6,PennController,38,0,critical,NULL,PennController,39,_Trial_,End,1650888752073,Wir haben keine Zeit für lange Diskussionen.,filler,104,gram,D,NULL
1650889466,9895a1f4e63aff1810d9ac5dbd439aa6,PennController,25,0,critical,NULL,PennController,26,_Trial_,Start,1650888752074,Tom und du werde damit definitiv in Schwierigkeiten geraten.,32_1,21,ungram,D,NULL
1650889466,9895a1f4e63aff1810d9ac5dbd439aa6,PennController,25,0,critical,NULL,Scale,rating,Choice,1,1650888757052,Tom und du werde damit definitiv in Schwierigkeiten geraten.,32_1,21,ungram,D,NULL
1650889466,9895a1f4e63aff1810d9ac5dbd439aa6,PennController,25,0,critical,NULL,PennController,26,_Trial_,End,1650888757054,Tom und du werde damit definitiv in Schwierigkeiten geraten.,32_1,21,ungram,D,NULL
1650889466,9895a1f4e63aff1810d9ac5dbd439aa6,PennController,48,0,critical,NULL,PennController,49,_Trial_,Start,1650888757055,Weder der Anwalt noch die Klägerin hätten damit gerechnet.,filler,114,gram,D,NULL
1650889466,9895a1f4e63aff1810d9ac5dbd439aa6,PennController,48,0,critical,NULL,Scale,rating,Choice,4,1650888784243,Weder der Anwalt noch die Klägerin hätten damit gerechnet.,filler,114,gram,D,NULL
1650889466,9895a1f4e63aff1810d9ac5dbd439aa6,PennController,48,0,critical,NULL,PennController,49,_Trial_,End,1650888784245,Weder der Anwalt noch die Klägerin hätten damit gerechnet.,filler,114,gram,D,NULL
1650889466,9895a1f4e63aff1810d9ac5dbd439aa6,PennController,46,0,critical,NULL,PennController,47,_Trial_,Start,1650888784246,Jungen und Mädchen werden getrennt untergebracht. ,filler,112,gram,D,NULL
1650889466,9895a1f4e63aff1810d9ac5dbd439aa6,PennController,46,0,critical,NULL,Scale,rating,Choice,5,1650888787382,Jungen und Mädchen werden getrennt untergebracht. ,filler,112,gram,D,NULL
1650889466,9895a1f4e63aff1810d9ac5dbd439aa6,PennController,46,0,critical,NULL,PennController,47,_Trial_,End,1650888787384,Jungen und Mädchen werden getrennt untergebracht. ,filler,112,gram,D,NULL
1650889466,9895a1f4e63aff1810d9ac5dbd439aa6,PennController,73,0,critical,NULL,PennController,74,_Trial_,Start,1650888787385,Abendessen nach dem sie immer spazieren ging. ,filler,139,ungram,D,NULL
1650889466,9895a1f4e63aff1810d9ac5dbd439aa6,PennController,73,0,critical,NULL,Scale,rating,Choice,1,1650888790783,Abendessen nach dem sie immer spazieren ging. ,filler,139,ungram,D,NULL
1650889466,9895a1f4e63aff1810d9ac5dbd439aa6,PennController,73,0,critical,NULL,PennController,74,_Trial_,End,1650888790785,Abendessen nach dem sie immer spazieren ging. ,filler,139,ungram,D,NULL
1650889466,9895a1f4e63aff1810d9ac5dbd439aa6,PennController,43,0,critical,NULL,PennController,44,_Trial_,Start,1650888790787,Meine Eltern haben mir zum Geburtstag neue Socken geschenkt.,filler,109,gram,D,NULL
1650889466,9895a1f4e63aff1810d9ac5dbd439aa6,PennController,43,0,critical,NULL,Scale,rating,Choice,5,1650888795939,Meine Eltern haben mir zum Geburtstag neue Socken geschenkt.,filler,109,gram,D,NULL
1650889466,9895a1f4e63aff1810d9ac5dbd439aa6,PennController,43,0,critical,NULL,PennController,44,_Trial_,End,1650888795941,Meine Eltern haben mir zum Geburtstag neue Socken geschenkt.,filler,109,gram,D,NULL
1650889466,9895a1f4e63aff1810d9ac5dbd439aa6,PennController,22,0,critical,NULL,PennController,23,_Trial_,Start,1650888795942,Du und Opa habe die Stadt noch nie gemocht.,23_1,18,ungram,D,NULL
1650889466,9895a1f4e63aff1810d9ac5dbd439aa6,PennController,22,0,critical,NULL,Scale,rating,Choice,1,1650888800759,Du und Opa habe die Stadt noch nie gemocht.,23_1,18,ungram,D,NULL
1650889466,9895a1f4e63aff1810d9ac5dbd439aa6,PennController,22,0,critical,NULL,PennController,23,_Trial_,End,1650888800761,Du und Opa habe die Stadt noch nie gemocht.,23_1,18,ungram,D,NULL
1650889466,9895a1f4e63aff1810d9ac5dbd439aa6,PennController,65,0,critical,NULL,PennController,66,_Trial_,Start,1650888800762,Das nie vergessen ich dir werde.,filler,131,ungram,D,NULL
1650889466,9895a1f4e63aff1810d9ac5dbd439aa6,PennController,65,0,critical,NULL,Scale,rating,Choice,1,1650888803003,Das nie vergessen ich dir werde.,filler,131,ungram,D,NULL
1650889466,9895a1f4e63aff1810d9ac5dbd439aa6,PennController,65,0,critical,NULL,PennController,66,_Trial_,End,1650888803005,Das nie vergessen ich dir werde.,filler,131,ungram,D,NULL
1650889466,9895a1f4e63aff1810d9ac5dbd439aa6,PennController,44,0,critical,NULL,PennController,45,_Trial_,Start,1650888803006,Du solltest dir darüber wirklich Gedanken machen.,filler,110,gram,D,NULL
1650889466,9895a1f4e63aff1810d9ac5dbd439aa6,PennController,44,0,critical,NULL,Scale,rating,Choice,5,1650888807803,Du solltest dir darüber wirklich Gedanken machen.,filler,110,gram,D,NULL
1650889466,9895a1f4e63aff1810d9ac5dbd439aa6,PennController,44,0,critical,NULL,PennController,45,_Trial_,End,1650888807806,Du solltest dir darüber wirklich Gedanken machen.,filler,110,gram,D,NULL
1650889466,9895a1f4e63aff1810d9ac5dbd439aa6,PennController,40,0,critical,NULL,PennController,41,_Trial_,Start,1650888807807,Normalerweise schneit es im Januar.,filler,106,gram,D,NULL
1650889466,9895a1f4e63aff1810d9ac5dbd439aa6,PennController,40,0,critical,NULL,Scale,rating,Choice,1,1650888814262,Normalerweise schneit es im Januar.,filler,106,gram,D,NULL
1650889466,9895a1f4e63aff1810d9ac5dbd439aa6,PennController,40,0,critical,NULL,PennController,41,_Trial_,End,1650888814264,Normalerweise schneit es im Januar.,filler,106,gram,D,NULL
1650889466,9895a1f4e63aff1810d9ac5dbd439aa6,PennController,35,0,critical,NULL,PennController,36,_Trial_,Start,1650888814266,Ich werde definitiv zur Party kommen.,filler,101,gram,D,NULL
1650889466,9895a1f4e63aff1810d9ac5dbd439aa6,PennController,35,0,critical,NULL,Scale,rating,Choice,5,1650888817338,Ich werde definitiv zur Party kommen.,filler,101,gram,D,NULL
1650889466,9895a1f4e63aff1810d9ac5dbd439aa6,PennController,35,0,critical,NULL,PennController,36,_Trial_,End,1650888817340,Ich werde definitiv zur Party kommen.,filler,101,gram,D,NULL
1650889466,9895a1f4e63aff1810d9ac5dbd439aa6,PennController,8,0,critical,NULL,PennController,9,_Trial_,Start,1650888817342,Du und meine Freundin haben viel gemeinsam.,23_3,4,gram,D,NULL
1650889466,9895a1f4e63aff1810d9ac5dbd439aa6,PennController,8,0,critical,NULL,Scale,rating,Choice,5,1650888823589,Du und meine Freundin haben viel gemeinsam.,23_3,4,gram,D,NULL
1650889466,9895a1f4e63aff1810d9ac5dbd439aa6,PennController,8,0,critical,NULL,PennController,9,_Trial_,End,1650888823591,Du und meine Freundin haben viel gemeinsam.,23_3,4,gram,D,NULL
1650889466,9895a1f4e63aff1810d9ac5dbd439aa6,PennController,62,0,critical,NULL,PennController,63,_Trial_,Start,1650888823592,Tiere und Pflanzen fühlen sich in der Sonne besonders wohlig.,filler,128,medium,D,NULL
1650889466,9895a1f4e63aff1810d9ac5dbd439aa6,PennController,62,0,critical,NULL,Scale,rating,Choice,3,1650888843313,Tiere und Pflanzen fühlen sich in der Sonne besonders wohlig.,filler,128,medium,D,NULL
1650889466,9895a1f4e63aff1810d9ac5dbd439aa6,PennController,62,0,critical,NULL,PennController,63,_Trial_,End,1650888843315,Tiere und Pflanzen fühlen sich in der Sonne besonders wohlig.,filler,128,medium,D,NULL
1650889466,9895a1f4e63aff1810d9ac5dbd439aa6,PennController,54,0,critical,NULL,PennController,55,_Trial_,Start,1650888843316,Der Schiffsverkehr lag drei Tage gelähmt.,filler,120,medium,D,NULL
1650889466,9895a1f4e63aff1810d9ac5dbd439aa6,PennController,54,0,critical,NULL,Scale,rating,Choice,1,1650888847638,Der Schiffsverkehr lag drei Tage gelähmt.,filler,120,medium,D,NULL
1650889466,9895a1f4e63aff1810d9ac5dbd439aa6,PennController,54,0,critical,NULL,PennController,55,_Trial_,End,1650888847639,Der Schiffsverkehr lag drei Tage gelähmt.,filler,120,medium,D,NULL
1650889466,9895a1f4e63aff1810d9ac5dbd439aa6,PennController,50,0,critical,NULL,PennController,51,_Trial_,Start,1650888847641,Das Datum zu ändern sie immer vergaß.,filler,116,medium,D,NULL
1650889466,9895a1f4e63aff1810d9ac5dbd439aa6,PennController,50,0,critical,NULL,Scale,rating,Choice,1,1650888850516,Das Datum zu ändern sie immer vergaß.,filler,116,medium,D,NULL
1650889466,9895a1f4e63aff1810d9ac5dbd439aa6,PennController,50,0,critical,NULL,PennController,51,_Trial_,End,1650888850518,Das Datum zu ändern sie immer vergaß.,filler,116,medium,D,NULL
1650889466,9895a1f4e63aff1810d9ac5dbd439aa6,PennController,70,0,critical,NULL,PennController,71,_Trial_,Start,1650888850519,Ich müsste wieder einmal die Gießen blumen.,filler,136,ungram,D,NULL
1650889466,9895a1f4e63aff1810d9ac5dbd439aa6,PennController,70,0,critical,NULL,Scale,rating,Choice,1,1650888854618,Ich müsste wieder einmal die Gießen blumen.,filler,136,ungram,D,NULL
1650889466,9895a1f4e63aff1810d9ac5dbd439aa6,PennController,70,0,critical,NULL,PennController,71,_Trial_,End,1650888854619,Ich müsste wieder einmal die Gießen blumen.,filler,136,ungram,D,NULL
1650889466,9895a1f4e63aff1810d9ac5dbd439aa6,PennController,68,0,critical,NULL,PennController,69,_Trial_,Start,1650888854621,Die EU die Internet regulieren will angeblich.,filler,134,ungram,D,NULL
1650889466,9895a1f4e63aff1810d9ac5dbd439aa6,PennController,68,0,critical,NULL,Scale,rating,Choice,5,1650888859589,Die EU die Internet regulieren will angeblich.,filler,134,ungram,D,NULL
1650889466,9895a1f4e63aff1810d9ac5dbd439aa6,PennController,68,0,critical,NULL,PennController,69,_Trial_,End,1650888859591,Die EU die Internet regulieren will angeblich.,filler,134,ungram,D,NULL
1650889466,9895a1f4e63aff1810d9ac5dbd439aa6,PennController,39,0,critical,NULL,PennController,40,_Trial_,Start,1650888859593,Die Reparaturen sollten ungefähr drei Jahre dauern.,filler,105,gram,D,NULL
1650889466,9895a1f4e63aff1810d9ac5dbd439aa6,PennController,39,0,critical,NULL,Scale,rating,Choice,5,1650888863065,Die Reparaturen sollten ungefähr drei Jahre dauern.,filler,105,gram,D,NULL
1650889466,9895a1f4e63aff1810d9ac5dbd439aa6,PennController,39,0,critical,NULL,PennController,40,_Trial_,End,1650888863067,Die Reparaturen sollten ungefähr drei Jahre dauern.,filler,105,gram,D,NULL
1650889466,9895a1f4e63aff1810d9ac5dbd439aa6,PennController,13,0,critical,NULL,PennController,14,_Trial_,Start,1650888863068,Der Nachbar und du habe die Hecke nicht ordentlich geschnitten.,32_1,9,ungram,D,NULL
1650889466,9895a1f4e63aff1810d9ac5dbd439aa6,PennController,13,0,critical,NULL,Scale,rating,Choice,1,1650888869276,Der Nachbar und du habe die Hecke nicht ordentlich geschnitten.,32_1,9,ungram,D,NULL
1650889466,9895a1f4e63aff1810d9ac5dbd439aa6,PennController,13,0,critical,NULL,PennController,14,_Trial_,End,1650888869278,Der Nachbar und du habe die Hecke nicht ordentlich geschnitten.,32_1,9,ungram,D,NULL
1650889466,9895a1f4e63aff1810d9ac5dbd439aa6,PennController,19,0,critical,NULL,PennController,20,_Trial_,Start,1650888869280,Anna und du bin doch verrückt.,32_1,15,ungram,D,NULL
1650889466,9895a1f4e63aff1810d9ac5dbd439aa6,PennController,19,0,critical,NULL,Scale,rating,Choice,1,1650888872337,Anna und du bin doch verrückt.,32_1,15,ungram,D,NULL
1650889466,9895a1f4e63aff1810d9ac5dbd439aa6,PennController,19,0,critical,NULL,PennController,20,_Trial_,End,1650888872339,Anna und du bin doch verrückt.,32_1,15,ungram,D,NULL
1650889466,9895a1f4e63aff1810d9ac5dbd439aa6,PennController,58,0,critical,NULL,PennController,59,_Trial_,Start,1650888872340,Genauere Daten müssen noch ermittelt werden zur Verbreitung der Krankheit.,filler,124,medium,D,NULL
1650889466,9895a1f4e63aff1810d9ac5dbd439aa6,PennController,58,0,critical,NULL,Scale,rating,Choice,1,1650888886873,Genauere Daten müssen noch ermittelt werden zur Verbreitung der Krankheit.,filler,124,medium,D,NULL
1650889466,9895a1f4e63aff1810d9ac5dbd439aa6,PennController,58,0,critical,NULL,PennController,59,_Trial_,End,1650888886875,Genauere Daten müssen noch ermittelt werden zur Verbreitung der Krankheit.,filler,124,medium,D,NULL
1650889466,9895a1f4e63aff1810d9ac5dbd439aa6,PennController,47,0,critical,NULL,PennController,48,_Trial_,Start,1650888886877,Ich mag sowohl Katzen als auch Hunde.,filler,113,gram,D,NULL
1650889466,9895a1f4e63aff1810d9ac5dbd439aa6,PennController,47,0,critical,NULL,Scale,rating,Choice,5,1650888891135,Ich mag sowohl Katzen als auch Hunde.,filler,113,gram,D,NULL
1650889466,9895a1f4e63aff1810d9ac5dbd439aa6,PennController,47,0,critical,NULL,PennController,48,_Trial_,End,1650888891137,Ich mag sowohl Katzen als auch Hunde.,filler,113,gram,D,NULL
1650889466,9895a1f4e63aff1810d9ac5dbd439aa6,PennController,15,0,critical,NULL,PennController,16,_Trial_,Start,1650888891138,Du und das Team habt gute Chancen auf den Pokal.,23_2,11,gram,D,NULL
1650889466,9895a1f4e63aff1810d9ac5dbd439aa6,PennController,15,0,critical,NULL,Scale,rating,Choice,1,1650888897502,Du und das Team habt gute Chancen auf den Pokal.,23_2,11,gram,D,NULL
1650889466,9895a1f4e63aff1810d9ac5dbd439aa6,PennController,15,0,critical,NULL,PennController,16,_Trial_,End,1650888897504,Du und das Team habt gute Chancen auf den Pokal.,23_2,11,gram,D,NULL
1650889466,9895a1f4e63aff1810d9ac5dbd439aa6,PennController,77,0,critical,NULL,PennController,78,_Trial_,Start,1650888897505,Genannt wurden insbesondere die Leiterin und das Leiter. ,filler,143,ungram,D,NULL
1650889466,9895a1f4e63aff1810d9ac5dbd439aa6,PennController,77,0,critical,NULL,Scale,rating,Choice,1,1650888911218,Genannt wurden insbesondere die Leiterin und das Leiter. ,filler,143,ungram,D,NULL
1650889466,9895a1f4e63aff1810d9ac5dbd439aa6,PennController,77,0,critical,NULL,PennController,78,_Trial_,End,1650888911220,Genannt wurden insbesondere die Leiterin und das Leiter. ,filler,143,ungram,D,NULL
1650889466,9895a1f4e63aff1810d9ac5dbd439aa6,PennController,7,0,critical,NULL,PennController,8,_Trial_,Start,1650888911221,Der Hund und du bin zu schnell für mich.,32_1,3,ungram,D,NULL
1650889466,9895a1f4e63aff1810d9ac5dbd439aa6,PennController,7,0,critical,NULL,Scale,rating,Choice,1,1650888914013,Der Hund und du bin zu schnell für mich.,32_1,3,ungram,D,NULL
1650889466,9895a1f4e63aff1810d9ac5dbd439aa6,PennController,7,0,critical,NULL,PennController,8,_Trial_,End,1650888914015,Der Hund und du bin zu schnell für mich.,32_1,3,ungram,D,NULL
1650889466,9895a1f4e63aff1810d9ac5dbd439aa6,PennController,74,0,critical,NULL,PennController,75,_Trial_,Start,1650888914016,Der Plan aufging leider nicht ganz. ,filler,140,ungram,D,NULL
1650889466,9895a1f4e63aff1810d9ac5dbd439aa6,PennController,74,0,critical,NULL,Scale,rating,Choice,5,1650888917383,Der Plan aufging leider nicht ganz. ,filler,140,ungram,D,NULL
1650889466,9895a1f4e63aff1810d9ac5dbd439aa6,PennController,74,0,critical,NULL,PennController,75,_Trial_,End,1650888917385,Der Plan aufging leider nicht ganz. ,filler,140,ungram,D,NULL
1650889466,9895a1f4e63aff1810d9ac5dbd439aa6,PennController,20,0,critical,NULL,PennController,21,_Trial_,Start,1650888917387,Du und deine Vorgesetzte kommen wohl nicht so gut miteinander aus. ,23_3,16,gram,D,NULL
1650889466,9895a1f4e63aff1810d9ac5dbd439aa6,PennController,20,0,critical,NULL,Scale,rating,Choice,5,1650888921495,Du und deine Vorgesetzte kommen wohl nicht so gut miteinander aus. ,23_3,16,gram,D,NULL
1650889466,9895a1f4e63aff1810d9ac5dbd439aa6,PennController,20,0,critical,NULL,PennController,21,_Trial_,End,1650888921497,Du und deine Vorgesetzte kommen wohl nicht so gut miteinander aus. ,23_3,16,gram,D,NULL
1650889466,9895a1f4e63aff1810d9ac5dbd439aa6,PennController,69,0,critical,NULL,PennController,70,_Trial_,Start,1650888921498,Die Aktenkurse steigen infolgedessen der Inflation.,filler,135,ungram,D,NULL
1650889466,9895a1f4e63aff1810d9ac5dbd439aa6,PennController,69,0,critical,NULL,Scale,rating,Choice,1,1650888932241,Die Aktenkurse steigen infolgedessen der Inflation.,filler,135,ungram,D,NULL
1650889466,9895a1f4e63aff1810d9ac5dbd439aa6,PennController,69,0,critical,NULL,PennController,70,_Trial_,End,1650888932242,Die Aktenkurse steigen infolgedessen der Inflation.,filler,135,ungram,D,NULL
1650889466,9895a1f4e63aff1810d9ac5dbd439aa6,PennController,24,0,critical,NULL,PennController,25,_Trial_,Start,1650888932243,Dein Anwalt und du habt den Prozess nur wegen Verfahrensfehler gewonnen. ,32_2,20,gram,D,NULL
1650889466,9895a1f4e63aff1810d9ac5dbd439aa6,PennController,24,0,critical,NULL,Scale,rating,Choice,1,1650888938721,Dein Anwalt und du habt den Prozess nur wegen Verfahrensfehler gewonnen. ,32_2,20,gram,D,NULL
1650889466,9895a1f4e63aff1810d9ac5dbd439aa6,PennController,24,0,critical,NULL,PennController,25,_Trial_,End,1650888938723,Dein Anwalt und du habt den Prozess nur wegen Verfahrensfehler gewonnen. ,32_2,20,gram,D,NULL
1650889466,9895a1f4e63aff1810d9ac5dbd439aa6,PennController,33,0,critical,NULL,PennController,34,_Trial_,Start,1650888938724,Du und Maria habt den Garten ja völlig verkommen lassen.,23_2,29,gram,D,NULL
1650889466,9895a1f4e63aff1810d9ac5dbd439aa6,PennController,33,0,critical,NULL,Scale,rating,Choice,1,1650888944632,Du und Maria habt den Garten ja völlig verkommen lassen.,23_2,29,gram,D,NULL
1650889466,9895a1f4e63aff1810d9ac5dbd439aa6,PennController,33,0,critical,NULL,PennController,34,_Trial_,End,1650888944633,Du und Maria habt den Garten ja völlig verkommen lassen.,23_2,29,gram,D,NULL
1650889466,9895a1f4e63aff1810d9ac5dbd439aa6,PennController,49,0,critical,NULL,PennController,50,_Trial_,Start,1650888944634,Jeder Arbeitnehmer und jede Arbeitnehmerin hat Anspruch auf Elternzeit.,filler,115,gram,D,NULL
1650889466,9895a1f4e63aff1810d9ac5dbd439aa6,PennController,49,0,critical,NULL,Scale,rating,Choice,5,1650888951581,Jeder Arbeitnehmer und jede Arbeitnehmerin hat Anspruch auf Elternzeit.,filler,115,gram,D,NULL
1650889466,9895a1f4e63aff1810d9ac5dbd439aa6,PennController,49,0,critical,NULL,PennController,50,_Trial_,End,1650888951583,Jeder Arbeitnehmer und jede Arbeitnehmerin hat Anspruch auf Elternzeit.,filler,115,gram,D,NULL
1650889466,9895a1f4e63aff1810d9ac5dbd439aa6,PennController,55,0,critical,NULL,PennController,56,_Trial_,Start,1650888951584,Die Uhren werden umgestellt jedes Jahr im März und Oktober.,filler,121,medium,D,NULL
1650889466,9895a1f4e63aff1810d9ac5dbd439aa6,PennController,55,0,critical,NULL,Scale,rating,Choice,5,1650888957232,Die Uhren werden umgestellt jedes Jahr im März und Oktober.,filler,121,medium,D,NULL
1650889466,9895a1f4e63aff1810d9ac5dbd439aa6,PennController,55,0,critical,NULL,PennController,56,_Trial_,End,1650888957234,Die Uhren werden umgestellt jedes Jahr im März und Oktober.,filler,121,medium,D,NULL
1650889466,9895a1f4e63aff1810d9ac5dbd439aa6,PennController,32,0,critical,NULL,PennController,33,_Trial_,Start,1650888957235,Du und Kofi haben eine wirklich tolle Leistung gezeigt.,23_3,28,gram,D,NULL
1650889466,9895a1f4e63aff1810d9ac5dbd439aa6,PennController,32,0,critical,NULL,Scale,rating,Choice,1,1650888966124,Du und Kofi haben eine wirklich tolle Leistung gezeigt.,23_3,28,gram,D,NULL
1650889466,9895a1f4e63aff1810d9ac5dbd439aa6,PennController,32,0,critical,NULL,PennController,33,_Trial_,End,1650888966126,Du und Kofi haben eine wirklich tolle Leistung gezeigt.,23_3,28,gram,D,NULL
1650889466,9895a1f4e63aff1810d9ac5dbd439aa6,PennController,16,0,critical,NULL,PennController,17,_Trial_,Start,1650888966128,Du und Maryam werde damit keine Schwierigkeiten haben.,23_1,12,ungram,D,NULL
1650889466,9895a1f4e63aff1810d9ac5dbd439aa6,PennController,16,0,critical,NULL,Scale,rating,Choice,1,1650888980594,Du und Maryam werde damit keine Schwierigkeiten haben.,23_1,12,ungram,D,NULL
1650889466,9895a1f4e63aff1810d9ac5dbd439aa6,PennController,16,0,critical,NULL,PennController,17,_Trial_,End,1650888980596,Du und Maryam werde damit keine Schwierigkeiten haben.,23_1,12,ungram,D,NULL
1650889466,9895a1f4e63aff1810d9ac5dbd439aa6,PennController,59,0,critical,NULL,PennController,60,_Trial_,Start,1650888980597,Das Ferienhaus ist wirklich traumerfüllend.,filler,125,medium,D,NULL
1650889466,9895a1f4e63aff1810d9ac5dbd439aa6,PennController,59,0,critical,NULL,Scale,rating,Choice,5,1650888991010,Das Ferienhaus ist wirklich traumerfüllend.,filler,125,medium,D,NULL
1650889466,9895a1f4e63aff1810d9ac5dbd439aa6,PennController,59,0,critical,NULL,PennController,60,_Trial_,End,1650888991012,Das Ferienhaus ist wirklich traumerfüllend.,filler,125,medium,D,NULL
1650889466,9895a1f4e63aff1810d9ac5dbd439aa6,PennController,63,0,critical,NULL,PennController,64,_Trial_,Start,1650888991013,Eine neue Matratze bräuchte ich und bessere Vorhänge.,filler,129,medium,D,NULL
1650889466,9895a1f4e63aff1810d9ac5dbd439aa6,PennController,63,0,critical,NULL,Scale,rating,Choice,3,1650888998735,Eine neue Matratze bräuchte ich und bessere Vorhänge.,filler,129,medium,D,NULL
1650889466,9895a1f4e63aff1810d9ac5dbd439aa6,PennController,63,0,critical,NULL,PennController,64,_Trial_,End,1650888998737,Eine neue Matratze bräuchte ich und bessere Vorhänge.,filler,129,medium,D,NULL
1650889466,9895a1f4e63aff1810d9ac5dbd439aa6,PennController,41,0,critical,NULL,PennController,42,_Trial_,Start,1650888998738,Deine Freunde sind alle immer so unfreundlich.,filler,107,gram,D,NULL
1650889466,9895a1f4e63aff1810d9ac5dbd439aa6,PennController,41,0,critical,NULL,Scale,rating,Choice,2,1650889021787,Deine Freunde sind alle immer so unfreundlich.,filler,107,gram,D,NULL
1650889466,9895a1f4e63aff1810d9ac5dbd439aa6,PennController,41,0,critical,NULL,PennController,42,_Trial_,End,1650889021789,Deine Freunde sind alle immer so unfreundlich.,filler,107,gram,D,NULL
1650889466,9895a1f4e63aff1810d9ac5dbd439aa6,PennController,53,0,critical,NULL,PennController,54,_Trial_,Start,1650889021791,Keine bessere Idee hatte er auch.,filler,119,medium,D,NULL
1650889466,9895a1f4e63aff1810d9ac5dbd439aa6,PennController,53,0,critical,NULL,Scale,rating,Choice,1,1650889027446,Keine bessere Idee hatte er auch.,filler,119,medium,D,NULL
1650889466,9895a1f4e63aff1810d9ac5dbd439aa6,PennController,53,0,critical,NULL,PennController,54,_Trial_,End,1650889027448,Keine bessere Idee hatte er auch.,filler,119,medium,D,NULL
1650889466,9895a1f4e63aff1810d9ac5dbd439aa6,PennController,75,0,critical,NULL,PennController,76,_Trial_,Start,1650889027449,Alle Teilnehmerinnen und Teilnehmer bekommt eine Urkunde ausgestellt.,filler,141,ungram,D,NULL
1650889466,9895a1f4e63aff1810d9ac5dbd439aa6,PennController,75,0,critical,NULL,Scale,rating,Choice,5,1650889031440,Alle Teilnehmerinnen und Teilnehmer bekommt eine Urkunde ausgestellt.,filler,141,ungram,D,NULL
1650889466,9895a1f4e63aff1810d9ac5dbd439aa6,PennController,75,0,critical,NULL,PennController,76,_Trial_,End,1650889031441,Alle Teilnehmerinnen und Teilnehmer bekommt eine Urkunde ausgestellt.,filler,141,ungram,D,NULL
1650889466,9895a1f4e63aff1810d9ac5dbd439aa6,PennController,67,0,critical,NULL,PennController,68,_Trial_,Start,1650889031443,Wir werden im Weihnachten nie nach Spanien wieder fahren.,filler,133,ungram,D,NULL
1650889466,9895a1f4e63aff1810d9ac5dbd439aa6,PennController,67,0,critical,NULL,Scale,rating,Choice,1,1650889037274,Wir werden im Weihnachten nie nach Spanien wieder fahren.,filler,133,ungram,D,NULL
1650889466,9895a1f4e63aff1810d9ac5dbd439aa6,PennController,67,0,critical,NULL,PennController,68,_Trial_,End,1650889037276,Wir werden im Weihnachten nie nach Spanien wieder fahren.,filler,133,ungram,D,NULL
1650889466,9895a1f4e63aff1810d9ac5dbd439aa6,PennController,78,0,critical,NULL,PennController,79,_Trial_,Start,1650889037277,Chemikalien haben Flüsse und andere Gewässer verseucht sollen.,filler,144,ungram,D,NULL
1650889466,9895a1f4e63aff1810d9ac5dbd439aa6,PennController,78,0,critical,NULL,Scale,rating,Choice,1,1650889042503,Chemikalien haben Flüsse und andere Gewässer verseucht sollen.,filler,144,ungram,D,NULL
1650889466,9895a1f4e63aff1810d9ac5dbd439aa6,PennController,78,0,critical,NULL,PennController,79,_Trial_,End,1650889042506,Chemikalien haben Flüsse und andere Gewässer verseucht sollen.,filler,144,ungram,D,NULL
1650889466,9895a1f4e63aff1810d9ac5dbd439aa6,PennController,6,0,critical,NULL,PennController,7,_Trial_,Start,1650889042507,Leona und du werdet das Spiel bestimmt gewinnen.,32_2,2,gram,D,NULL
1650889466,9895a1f4e63aff1810d9ac5dbd439aa6,PennController,6,0,critical,NULL,Scale,rating,Choice,1,1650889048440,Leona und du werdet das Spiel bestimmt gewinnen.,32_2,2,gram,D,NULL
1650889466,9895a1f4e63aff1810d9ac5dbd439aa6,PennController,6,0,critical,NULL,PennController,7,_Trial_,End,1650889048442,Leona und du werdet das Spiel bestimmt gewinnen.,32_2,2,gram,D,NULL
1650889466,9895a1f4e63aff1810d9ac5dbd439aa6,PennController,61,0,critical,NULL,PennController,62,_Trial_,Start,1650889048443,Für Auto- und Radfahrer lohnt sich beide eine gute Versicherung.,filler,127,medium,D,NULL
1650889466,9895a1f4e63aff1810d9ac5dbd439aa6,PennController,61,0,critical,NULL,Scale,rating,Choice,1,1650889052786,Für Auto- und Radfahrer lohnt sich beide eine gute Versicherung.,filler,127,medium,D,NULL
1650889466,9895a1f4e63aff1810d9ac5dbd439aa6,PennController,61,0,critical,NULL,PennController,62,_Trial_,End,1650889052788,Für Auto- und Radfahrer lohnt sich beide eine gute Versicherung.,filler,127,medium,D,NULL
1650889466,9895a1f4e63aff1810d9ac5dbd439aa6,PennController,36,0,critical,NULL,PennController,37,_Trial_,Start,1650889052789,Die Präsidentschaftswahlen finden nächsten Monat statt.,filler,102,gram,D,NULL
1650889466,9895a1f4e63aff1810d9ac5dbd439aa6,PennController,36,0,critical,NULL,Scale,rating,Choice,5,1650889057515,Die Präsidentschaftswahlen finden nächsten Monat statt.,filler,102,gram,D,NULL
1650889466,9895a1f4e63aff1810d9ac5dbd439aa6,PennController,36,0,critical,NULL,PennController,37,_Trial_,End,1650889057516,Die Präsidentschaftswahlen finden nächsten Monat statt.,filler,102,gram,D,NULL
1650889466,9895a1f4e63aff1810d9ac5dbd439aa6,PennController,76,0,critical,NULL,PennController,77,_Trial_,Start,1650889057518,Das Gemüse und die Kartoffeln ist in kulinarischer Perfektion.,filler,142,ungram,D,NULL
1650889466,9895a1f4e63aff1810d9ac5dbd439aa6,PennController,76,0,critical,NULL,Scale,rating,Choice,1,1650889062748,Das Gemüse und die Kartoffeln ist in kulinarischer Perfektion.,filler,142,ungram,D,NULL
1650889466,9895a1f4e63aff1810d9ac5dbd439aa6,PennController,76,0,critical,NULL,PennController,77,_Trial_,End,1650889062750,Das Gemüse und die Kartoffeln ist in kulinarischer Perfektion.,filler,142,ungram,D,NULL
1650889466,9895a1f4e63aff1810d9ac5dbd439aa6,PennController,56,0,critical,NULL,PennController,57,_Trial_,Start,1650889062751,Der Minister hat zur Wiederwahl von sich aufgerufen.,filler,122,medium,D,NULL
1650889466,9895a1f4e63aff1810d9ac5dbd439aa6,PennController,56,0,critical,NULL,Scale,rating,Choice,4,1650889071453,Der Minister hat zur Wiederwahl von sich aufgerufen.,filler,122,medium,D,NULL
1650889466,9895a1f4e63aff1810d9ac5dbd439aa6,PennController,56,0,critical,NULL,PennController,57,_Trial_,End,1650889071455,Der Minister hat zur Wiederwahl von sich aufgerufen.,filler,122,medium,D,NULL
1650889466,9895a1f4e63aff1810d9ac5dbd439aa6,PennController,21,0,critical,NULL,PennController,22,_Trial_,Start,1650889071456,Du und Mama versteht das doch bestimmt.,23_2,17,gram,D,NULL
1650889466,9895a1f4e63aff1810d9ac5dbd439aa6,PennController,21,0,critical,NULL,Scale,rating,Choice,5,1650889082848,Du und Mama versteht das doch bestimmt.,23_2,17,gram,D,NULL
1650889466,9895a1f4e63aff1810d9ac5dbd439aa6,PennController,21,0,critical,NULL,PennController,22,_Trial_,End,1650889082850,Du und Mama versteht das doch bestimmt.,23_2,17,gram,D,NULL
1650889466,9895a1f4e63aff1810d9ac5dbd439aa6,PennController,51,0,critical,NULL,PennController,52,_Trial_,Start,1650889082851,Beschreibungen vom Tatort waren nicht unvollständig.,filler,117,medium,D,NULL
1650889466,9895a1f4e63aff1810d9ac5dbd439aa6,PennController,51,0,critical,NULL,Scale,rating,Choice,5,1650889090184,Beschreibungen vom Tatort waren nicht unvollständig.,filler,117,medium,D,NULL
1650889466,9895a1f4e63aff1810d9ac5dbd439aa6,PennController,51,0,critical,NULL,PennController,52,_Trial_,End,1650889090187,Beschreibungen vom Tatort waren nicht unvollständig.,filler,117,medium,D,NULL
1650889466,9895a1f4e63aff1810d9ac5dbd439aa6,PennController,27,0,critical,NULL,PennController,28,_Trial_,Start,1650889090188,Du und Robin habt ungefähr die gleiche Größe.,23_2,23,gram,D,NULL
1650889466,9895a1f4e63aff1810d9ac5dbd439aa6,PennController,27,0,critical,NULL,Scale,rating,Choice,1,1650889095899,Du und Robin habt ungefähr die gleiche Größe.,23_2,23,gram,D,NULL
1650889466,9895a1f4e63aff1810d9ac5dbd439aa6,PennController,27,0,critical,NULL,PennController,28,_Trial_,End,1650889095901,Du und Robin habt ungefähr die gleiche Größe.,23_2,23,gram,D,NULL
1650889466,9895a1f4e63aff1810d9ac5dbd439aa6,PennController,72,0,critical,NULL,PennController,73,_Trial_,Start,1650889095902,Gelesen%2C aber nicht gefallen%2C hatte ihm das Buch.,filler,138,ungram,D,NULL
1650889466,9895a1f4e63aff1810d9ac5dbd439aa6,PennController,72,0,critical,NULL,Scale,rating,Choice,1,1650889100178,Gelesen%2C aber nicht gefallen%2C hatte ihm das Buch.,filler,138,ungram,D,NULL
1650889466,9895a1f4e63aff1810d9ac5dbd439aa6,PennController,72,0,critical,NULL,PennController,73,_Trial_,End,1650889100179,Gelesen%2C aber nicht gefallen%2C hatte ihm das Buch.,filler,138,ungram,D,NULL
1650889466,9895a1f4e63aff1810d9ac5dbd439aa6,PennController,11,0,critical,NULL,PennController,12,_Trial_,Start,1650889100181,Der andere Lehrer und du werden noch einige schwierige Fälle erleben.,32_3,7,gram,D,NULL
1650889466,9895a1f4e63aff1810d9ac5dbd439aa6,PennController,11,0,critical,NULL,Scale,rating,Choice,1,1650889108010,Der andere Lehrer und du werden noch einige schwierige Fälle erleben.,32_3,7,gram,D,NULL
1650889466,9895a1f4e63aff1810d9ac5dbd439aa6,PennController,11,0,critical,NULL,PennController,12,_Trial_,End,1650889108012,Der andere Lehrer und du werden noch einige schwierige Fälle erleben.,32_3,7,gram,D,NULL
1650889466,9895a1f4e63aff1810d9ac5dbd439aa6,PennController,9,0,critical,NULL,PennController,10,_Trial_,Start,1650889108013,Du und Erik habt die Schlüssel vielleicht zuhause vergessen.,23_2,5,gram,D,NULL
1650889466,9895a1f4e63aff1810d9ac5dbd439aa6,PennController,9,0,critical,NULL,Scale,rating,Choice,1,1650889113945,Du und Erik habt die Schlüssel vielleicht zuhause vergessen.,23_2,5,gram,D,NULL
1650889466,9895a1f4e63aff1810d9ac5dbd439aa6,PennController,9,0,critical,NULL,PennController,10,_Trial_,End,1650889113947,Du und Erik habt die Schlüssel vielleicht zuhause vergessen.,23_2,5,gram,D,NULL
1650889466,9895a1f4e63aff1810d9ac5dbd439aa6,PennController,79,0,critical,NULL,PennController,80,_Trial_,Start,1650889113948,Die UN rief zur Stärkung von Kleinbauern und das Bildungssystem auf.,filler,145,ungram,D,NULL
1650889466,9895a1f4e63aff1810d9ac5dbd439aa6,PennController,79,0,critical,NULL,Scale,rating,Choice,1,1650889125142,Die UN rief zur Stärkung von Kleinbauern und das Bildungssystem auf.,filler,145,ungram,D,NULL
1650889466,9895a1f4e63aff1810d9ac5dbd439aa6,PennController,79,0,critical,NULL,PennController,80,_Trial_,End,1650889125146,Die UN rief zur Stärkung von Kleinbauern und das Bildungssystem auf.,filler,145,ungram,D,NULL
1650889466,9895a1f4e63aff1810d9ac5dbd439aa6,PennController,29,0,critical,NULL,PennController,30,_Trial_,Start,1650889125147,Unser Mieter und du werden schon einen Kompromiss finden.,32_3,25,gram,D,NULL
1650889466,9895a1f4e63aff1810d9ac5dbd439aa6,PennController,29,0,critical,NULL,Scale,rating,Choice,1,1650889136178,Unser Mieter und du werden schon einen Kompromiss finden.,32_3,25,gram,D,NULL
1650889466,9895a1f4e63aff1810d9ac5dbd439aa6,PennController,29,0,critical,NULL,PennController,30,_Trial_,End,1650889136178,Unser Mieter und du werden schon einen Kompromiss finden.,32_3,25,gram,D,NULL
1650889466,9895a1f4e63aff1810d9ac5dbd439aa6,PennController,64,0,critical,NULL,PennController,65,_Trial_,Start,1650889136179,Der Tisch und die Stühle ist beides aus Eiche.,filler,130,medium,D,NULL
1650889466,9895a1f4e63aff1810d9ac5dbd439aa6,PennController,64,0,critical,NULL,Scale,rating,Choice,1,1650889138940,Der Tisch und die Stühle ist beides aus Eiche.,filler,130,medium,D,NULL
1650889466,9895a1f4e63aff1810d9ac5dbd439aa6,PennController,64,0,critical,NULL,PennController,65,_Trial_,End,1650889138941,Der Tisch und die Stühle ist beides aus Eiche.,filler,130,medium,D,NULL
1650889466,9895a1f4e63aff1810d9ac5dbd439aa6,PennController,18,0,critical,NULL,PennController,19,_Trial_,Start,1650889138942,Die Polizistin und du habt die Angelegenheit gut geregelt.,32_2,14,gram,D,NULL
1650889466,9895a1f4e63aff1810d9ac5dbd439aa6,PennController,18,0,critical,NULL,Scale,rating,Choice,1,1650889158153,Die Polizistin und du habt die Angelegenheit gut geregelt.,32_2,14,gram,D,NULL
1650889466,9895a1f4e63aff1810d9ac5dbd439aa6,PennController,18,0,critical,NULL,PennController,19,_Trial_,End,1650889158154,Die Polizistin und du habt die Angelegenheit gut geregelt.,32_2,14,gram,D,NULL
1650889466,9895a1f4e63aff1810d9ac5dbd439aa6,PennController,28,0,critical,NULL,PennController,29,_Trial_,Start,1650889158156,Du und dein Verlobter werde hoffentlich eine schöne Hochzeit haben.,23_1,24,ungram,D,NULL
1650889466,9895a1f4e63aff1810d9ac5dbd439aa6,PennController,28,0,critical,NULL,Scale,rating,Choice,1,1650889164083,Du und dein Verlobter werde hoffentlich eine schöne Hochzeit haben.,23_1,24,ungram,D,NULL
1650889466,9895a1f4e63aff1810d9ac5dbd439aa6,PennController,28,0,critical,NULL,PennController,29,_Trial_,End,1650889164084,Du und dein Verlobter werde hoffentlich eine schöne Hochzeit haben.,23_1,24,ungram,D,NULL
1650889466,9895a1f4e63aff1810d9ac5dbd439aa6,PennController,5,0,critical,NULL,PennController,6,_Trial_,Start,1650889164085,Dein Bruder und du haben den Film schon gesehen.,32_3,1,gram,D,NULL
1650889466,9895a1f4e63aff1810d9ac5dbd439aa6,PennController,5,0,critical,NULL,Scale,rating,Choice,1,1650889166512,Dein Bruder und du haben den Film schon gesehen.,32_3,1,gram,D,NULL
1650889466,9895a1f4e63aff1810d9ac5dbd439aa6,PennController,5,0,critical,NULL,PennController,6,_Trial_,End,1650889166513,Dein Bruder und du haben den Film schon gesehen.,32_3,1,gram,D,NULL
1650889466,9895a1f4e63aff1810d9ac5dbd439aa6,PennController,12,0,critical,NULL,PennController,13,_Trial_,Start,1650889166514,Dein Mann und du kennt das sicherlich schon alles.,32_2,8,gram,D,NULL
1650889466,9895a1f4e63aff1810d9ac5dbd439aa6,PennController,12,0,critical,NULL,Scale,rating,Choice,1,1650889172347,Dein Mann und du kennt das sicherlich schon alles.,32_2,8,gram,D,NULL
1650889466,9895a1f4e63aff1810d9ac5dbd439aa6,PennController,12,0,critical,NULL,PennController,13,_Trial_,End,1650889172349,Dein Mann und du kennt das sicherlich schon alles.,32_2,8,gram,D,NULL
1650889466,9895a1f4e63aff1810d9ac5dbd439aa6,PennController,14,0,critical,NULL,PennController,15,_Trial_,Start,1650889172350,Du und meine Kollegin haben genau die gleichen Probleme.,23_3,10,gram,D,NULL
1650889466,9895a1f4e63aff1810d9ac5dbd439aa6,PennController,14,0,critical,NULL,Scale,rating,Choice,1,1650889179250,Du und meine Kollegin haben genau die gleichen Probleme.,23_3,10,gram,D,NULL
1650889466,9895a1f4e63aff1810d9ac5dbd439aa6,PennController,14,0,critical,NULL,PennController,15,_Trial_,End,1650889179252,Du und meine Kollegin haben genau die gleichen Probleme.,23_3,10,gram,D,NULL
1650889466,9895a1f4e63aff1810d9ac5dbd439aa6,PennController,23,0,critical,NULL,PennController,24,_Trial_,Start,1650889179253,Deine Frau und du haben die neue Veranda bestimmt schon einmal gesehen.,32_3,19,gram,D,NULL
1650889466,9895a1f4e63aff1810d9ac5dbd439aa6,PennController,23,0,critical,NULL,Scale,rating,Choice,1,1650889190419,Deine Frau und du haben die neue Veranda bestimmt schon einmal gesehen.,32_3,19,gram,D,NULL
1650889466,9895a1f4e63aff1810d9ac5dbd439aa6,PennController,23,0,critical,NULL,PennController,24,_Trial_,End,1650889190421,Deine Frau und du haben die neue Veranda bestimmt schon einmal gesehen.,32_3,19,gram,D,NULL
1650889466,9895a1f4e63aff1810d9ac5dbd439aa6,PennController,30,0,critical,NULL,PennController,31,_Trial_,Start,1650889190422,Deine Therapeutin und du habt anscheinend die gleiche Meinung dazu.,32_2,26,gram,D,NULL
1650889466,9895a1f4e63aff1810d9ac5dbd439aa6,PennController,30,0,critical,NULL,Scale,rating,Choice,1,1650889197184,Deine Therapeutin und du habt anscheinend die gleiche Meinung dazu.,32_2,26,gram,D,NULL
1650889466,9895a1f4e63aff1810d9ac5dbd439aa6,PennController,30,0,critical,NULL,PennController,31,_Trial_,End,1650889197186,Deine Therapeutin und du habt anscheinend die gleiche Meinung dazu.,32_2,26,gram,D,NULL
# 13. Comments.
1650889466,9895a1f4e63aff1810d9ac5dbd439aa6,PennController,80,0,dialect,NULL,PennController,3,_Trial_,Start,1650889197189,NULL
1650889466,9895a1f4e63aff1810d9ac5dbd439aa6,PennController,80,0,dialect,NULL,TextInput,dialect-input,First,,1650889209289,k
1650889466,9895a1f4e63aff1810d9ac5dbd439aa6,PennController,80,0,dialect,NULL,TextInput,dialect-input,Final,kein Dialekt%2C keine Mundart,1650889216891,NULL
1650889466,9895a1f4e63aff1810d9ac5dbd439aa6,PennController,80,0,dialect,NULL,PennController,3,_Trial_,End,1650889216892,NULL
1650889466,9895a1f4e63aff1810d9ac5dbd439aa6,PennController,81,0,feedback,NULL,PennController,4,_Trial_,Start,1650889216893,NULL
1650889466,9895a1f4e63aff1810d9ac5dbd439aa6,PennController,81,0,feedback,NULL,TextInput,feedback-input,First,,1650889285346,Shift
1650889466,9895a1f4e63aff1810d9ac5dbd439aa6,PennController,81,0,feedback,NULL,TextInput,feedback-input,Final,Aufgefallen ist mir%2C dass häufig Sätze zu bewerten waren%2C in denen "Du" und eine zweite Person angesprochen wurden; hier wurde selten die 2. Person Plural des Verbs%2C die m.E. richtige Verbform verwendet.,1650889465021,NULL
1650889466,9895a1f4e63aff1810d9ac5dbd439aa6,PennController,81,0,feedback,NULL,PennController,4,_Trial_,End,1650889465022,NULL
#
# Results on Mon, 25 Apr 2022 13:13:55 GMT
# USER AGENT: Mozilla/5.0 (Windows NT 10.0; Win64; x64; rv:99.0) Gecko/20100101 Firefox/99.0
# Design number was non-random = 11
#
# Columns below this comment are as follows:
# 1. Results reception time.
# 2. MD5 hash of participant's IP address.
# 3. Controller name.
# 4. Order number of item.
# 5. Inner element number.
# 6. Label.
# 7. Latin Square Group.
# 8. PennElementType.
# 9. PennElementName.
# 10. Parameter.
# 11. Value.
# 12. EventTime.
# 13. Comments.
1650892435,dca940311d64d04a37f3a846b9c68bc8,PennController,2,0,welcome,NULL,PennController,0,_Trial_,Start,1650891584578,NULL
1650892435,dca940311d64d04a37f3a846b9c68bc8,PennController,2,0,welcome,NULL,PennController,0,_Trial_,End,1650891593534,NULL
1650892435,dca940311d64d04a37f3a846b9c68bc8,PennController,3,0,intro,NULL,PennController,1,_Trial_,Start,1650891593544,NULL
1650892435,dca940311d64d04a37f3a846b9c68bc8,PennController,3,0,intro,NULL,PennController,1,_Trial_,End,1650891612975,NULL
1650892435,dca940311d64d04a37f3a846b9c68bc8,PennController,4,0,data,NULL,PennController,2,_Trial_,Start,1650891612978,NULL
1650892435,dca940311d64d04a37f3a846b9c68bc8,PennController,4,0,data,NULL,PennController,2,_Trial_,End,1650891620601,NULL
# 13. Sentence.
# 14. Condition.
# 15. Item_set.
# 16. Correct.
# 17. Group.
# 18. Comments.
1650892435,dca940311d64d04a37f3a846b9c68bc8,PennController,34,0,critical,NULL,PennController,35,_Trial_,Start,1650891620603,Die andere Bewerberin und du werdet bald von uns hören.,32_2,30,gram,F,NULL
1650892435,dca940311d64d04a37f3a846b9c68bc8,PennController,34,0,critical,NULL,Scale,rating,Choice,3,1650891633098,Die andere Bewerberin und du werdet bald von uns hören.,32_2,30,gram,F,NULL
1650892435,dca940311d64d04a37f3a846b9c68bc8,PennController,34,0,critical,NULL,PennController,35,_Trial_,End,1650891633100,Die andere Bewerberin und du werdet bald von uns hören.,32_2,30,gram,F,NULL
1650892435,dca940311d64d04a37f3a846b9c68bc8,PennController,71,0,critical,NULL,PennController,72,_Trial_,Start,1650891633103,Die Bäckerei hat diesen Sommer geschließen.,filler,137,ungram,F,NULL
1650892435,dca940311d64d04a37f3a846b9c68bc8,PennController,71,0,critical,NULL,Scale,rating,Choice,1,1650891638510,Die Bäckerei hat diesen Sommer geschließen.,filler,137,ungram,F,NULL
1650892435,dca940311d64d04a37f3a846b9c68bc8,PennController,71,0,critical,NULL,PennController,72,_Trial_,End,1650891638511,Die Bäckerei hat diesen Sommer geschließen.,filler,137,ungram,F,NULL
1650892435,dca940311d64d04a37f3a846b9c68bc8,PennController,7,0,critical,NULL,PennController,8,_Trial_,Start,1650891638513,Du und der Hund seid zu schnell für mich.,23_2,3,gram,F,NULL
1650892435,dca940311d64d04a37f3a846b9c68bc8,PennController,7,0,critical,NULL,Scale,rating,Choice,4,1650891649498,Du und der Hund seid zu schnell für mich.,23_2,3,gram,F,NULL
1650892435,dca940311d64d04a37f3a846b9c68bc8,PennController,7,0,critical,NULL,PennController,8,_Trial_,End,1650891649501,Du und der Hund seid zu schnell für mich.,23_2,3,gram,F,NULL
1650892435,dca940311d64d04a37f3a846b9c68bc8,PennController,59,0,critical,NULL,PennController,60,_Trial_,Start,1650891649506,Das Ferienhaus ist wirklich traumerfüllend.,filler,125,medium,F,NULL
1650892435,dca940311d64d04a37f3a846b9c68bc8,PennController,59,0,critical,NULL,Scale,rating,Choice,2,1650891656504,Das Ferienhaus ist wirklich traumerfüllend.,filler,125,medium,F,NULL
1650892435,dca940311d64d04a37f3a846b9c68bc8,PennController,59,0,critical,NULL,PennController,60,_Trial_,End,1650891656506,Das Ferienhaus ist wirklich traumerfüllend.,filler,125,medium,F,NULL
1650892435,dca940311d64d04a37f3a846b9c68bc8,PennController,22,0,critical,NULL,PennController,23,_Trial_,Start,1650891656509,Opa und du habt die Stadt noch nie gemocht.,32_2,18,gram,F,NULL
1650892435,dca940311d64d04a37f3a846b9c68bc8,PennController,22,0,critical,NULL,Scale,rating,Choice,4,1650891663484,Opa und du habt die Stadt noch nie gemocht.,32_2,18,gram,F,NULL
1650892435,dca940311d64d04a37f3a846b9c68bc8,PennController,22,0,critical,NULL,PennController,23,_Trial_,End,1650891663486,Opa und du habt die Stadt noch nie gemocht.,32_2,18,gram,F,NULL
1650892435,dca940311d64d04a37f3a846b9c68bc8,PennController,69,0,critical,NULL,PennController,70,_Trial_,Start,1650891663488,Die Aktenkurse steigen infolgedessen der Inflation.,filler,135,ungram,F,NULL
1650892435,dca940311d64d04a37f3a846b9c68bc8,PennController,69,0,critical,NULL,Scale,rating,Choice,1,1650891666189,Die Aktenkurse steigen infolgedessen der Inflation.,filler,135,ungram,F,NULL
1650892435,dca940311d64d04a37f3a846b9c68bc8,PennController,69,0,critical,NULL,PennController,70,_Trial_,End,1650891666191,Die Aktenkurse steigen infolgedessen der Inflation.,filler,135,ungram,F,NULL
1650892435,dca940311d64d04a37f3a846b9c68bc8,PennController,42,0,critical,NULL,PennController,43,_Trial_,Start,1650891666193,Die Behörden haben weitere Raketenangriffe gemeldet.,filler,108,gram,F,NULL
1650892435,dca940311d64d04a37f3a846b9c68bc8,PennController,42,0,critical,NULL,Scale,rating,Choice,5,1650891676094,Die Behörden haben weitere Raketenangriffe gemeldet.,filler,108,gram,F,NULL
1650892435,dca940311d64d04a37f3a846b9c68bc8,PennController,42,0,critical,NULL,PennController,43,_Trial_,End,1650891676095,Die Behörden haben weitere Raketenangriffe gemeldet.,filler,108,gram,F,NULL
1650892435,dca940311d64d04a37f3a846b9c68bc8,PennController,72,0,critical,NULL,PennController,73,_Trial_,Start,1650891676097,Gelesen%2C aber nicht gefallen%2C hatte ihm das Buch.,filler,138,ungram,F,NULL
1650892435,dca940311d64d04a37f3a846b9c68bc8,PennController,72,0,critical,NULL,Scale,rating,Choice,5,1650891683828,Gelesen%2C aber nicht gefallen%2C hatte ihm das Buch.,filler,138,ungram,F,NULL
1650892435,dca940311d64d04a37f3a846b9c68bc8,PennController,72,0,critical,NULL,PennController,73,_Trial_,End,1650891683829,Gelesen%2C aber nicht gefallen%2C hatte ihm das Buch.,filler,138,ungram,F,NULL
1650892435,dca940311d64d04a37f3a846b9c68bc8,PennController,21,0,critical,NULL,PennController,22,_Trial_,Start,1650891683831,Mama und du verstehen das doch bestimmt.,32_3,17,gram,F,NULL
1650892435,dca940311d64d04a37f3a846b9c68bc8,PennController,21,0,critical,NULL,Scale,rating,Choice,5,1650891688731,Mama und du verstehen das doch bestimmt.,32_3,17,gram,F,NULL
1650892435,dca940311d64d04a37f3a846b9c68bc8,PennController,21,0,critical,NULL,PennController,22,_Trial_,End,1650891688732,Mama und du verstehen das doch bestimmt.,32_3,17,gram,F,NULL
1650892435,dca940311d64d04a37f3a846b9c68bc8,PennController,47,0,critical,NULL,PennController,48,_Trial_,Start,1650891688734,Ich mag sowohl Katzen als auch Hunde.,filler,113,gram,F,NULL
1650892435,dca940311d64d04a37f3a846b9c68bc8,PennController,47,0,critical,NULL,Scale,rating,Choice,5,1650891691430,Ich mag sowohl Katzen als auch Hunde.,filler,113,gram,F,NULL
1650892435,dca940311d64d04a37f3a846b9c68bc8,PennController,47,0,critical,NULL,PennController,48,_Trial_,End,1650891691431,Ich mag sowohl Katzen als auch Hunde.,filler,113,gram,F,NULL
1650892435,dca940311d64d04a37f3a846b9c68bc8,PennController,49,0,critical,NULL,PennController,50,_Trial_,Start,1650891691433,Jeder Arbeitnehmer und jede Arbeitnehmerin hat Anspruch auf Elternzeit.,filler,115,gram,F,NULL
1650892435,dca940311d64d04a37f3a846b9c68bc8,PennController,49,0,critical,NULL,Scale,rating,Choice,4,1650891702609,Jeder Arbeitnehmer und jede Arbeitnehmerin hat Anspruch auf Elternzeit.,filler,115,gram,F,NULL
1650892435,dca940311d64d04a37f3a846b9c68bc8,PennController,49,0,critical,NULL,PennController,50,_Trial_,End,1650891702611,Jeder Arbeitnehmer und jede Arbeitnehmerin hat Anspruch auf Elternzeit.,filler,115,gram,F,NULL
1650892435,dca940311d64d04a37f3a846b9c68bc8,PennController,29,0,critical,NULL,PennController,30,_Trial_,Start,1650891702612,Unser Mieter und du werde schon einen Kompromiss finden.,32_1,25,ungram,F,NULL
1650892435,dca940311d64d04a37f3a846b9c68bc8,PennController,29,0,critical,NULL,Scale,rating,Choice,5,1650891708457,Unser Mieter und du werde schon einen Kompromiss finden.,32_1,25,ungram,F,NULL
1650892435,dca940311d64d04a37f3a846b9c68bc8,PennController,29,0,critical,NULL,PennController,30,_Trial_,End,1650891708458,Unser Mieter und du werde schon einen Kompromiss finden.,32_1,25,ungram,F,NULL
1650892435,dca940311d64d04a37f3a846b9c68bc8,PennController,16,0,critical,NULL,PennController,17,_Trial_,Start,1650891708461,Maryam und du werdet damit keine Schwierigkeiten haben.,32_2,12,gram,F,NULL
1650892435,dca940311d64d04a37f3a846b9c68bc8,PennController,16,0,critical,NULL,Scale,rating,Choice,2,1650891725301,Maryam und du werdet damit keine Schwierigkeiten haben.,32_2,12,gram,F,NULL
1650892435,dca940311d64d04a37f3a846b9c68bc8,PennController,16,0,critical,NULL,PennController,17,_Trial_,End,1650891725303,Maryam und du werdet damit keine Schwierigkeiten haben.,32_2,12,gram,F,NULL
1650892435,dca940311d64d04a37f3a846b9c68bc8,PennController,6,0,critical,NULL,PennController,7,_Trial_,Start,1650891725305,Du und Leona werden das Spiel bestimmt gewinnen.,23_3,2,gram,F,NULL
1650892435,dca940311d64d04a37f3a846b9c68bc8,PennController,6,0,critical,NULL,Scale,rating,Choice,5,1650891729501,Du und Leona werden das Spiel bestimmt gewinnen.,23_3,2,gram,F,NULL
1650892435,dca940311d64d04a37f3a846b9c68bc8,PennController,6,0,critical,NULL,PennController,7,_Trial_,End,1650891729502,Du und Leona werden das Spiel bestimmt gewinnen.,23_3,2,gram,F,NULL
1650892435,dca940311d64d04a37f3a846b9c68bc8,PennController,40,0,critical,NULL,PennController,41,_Trial_,Start,1650891729504,Normalerweise schneit es im Januar.,filler,106,gram,F,NULL
1650892435,dca940311d64d04a37f3a846b9c68bc8,PennController,40,0,critical,NULL,Scale,rating,Choice,5,1650891735016,Normalerweise schneit es im Januar.,filler,106,gram,F,NULL
1650892435,dca940311d64d04a37f3a846b9c68bc8,PennController,40,0,critical,NULL,PennController,41,_Trial_,End,1650891735016,Normalerweise schneit es im Januar.,filler,106,gram,F,NULL
1650892435,dca940311d64d04a37f3a846b9c68bc8,PennController,19,0,critical,NULL,PennController,20,_Trial_,Start,1650891735018,Du und Anna seid doch verrückt.,23_2,15,gram,F,NULL
1650892435,dca940311d64d04a37f3a846b9c68bc8,PennController,19,0,critical,NULL,Scale,rating,Choice,5,1650891744611,Du und Anna seid doch verrückt.,23_2,15,gram,F,NULL
1650892435,dca940311d64d04a37f3a846b9c68bc8,PennController,19,0,critical,NULL,PennController,20,_Trial_,End,1650891744612,Du und Anna seid doch verrückt.,23_2,15,gram,F,NULL
1650892435,dca940311d64d04a37f3a846b9c68bc8,PennController,12,0,critical,NULL,PennController,13,_Trial_,Start,1650891744614,Du und dein Mann kennen das sicherlich schon alles.,23_3,8,gram,F,NULL
1650892435,dca940311d64d04a37f3a846b9c68bc8,PennController,12,0,critical,NULL,Scale,rating,Choice,5,1650891750371,Du und dein Mann kennen das sicherlich schon alles.,23_3,8,gram,F,NULL
1650892435,dca940311d64d04a37f3a846b9c68bc8,PennController,12,0,critical,NULL,PennController,13,_Trial_,End,1650891750372,Du und dein Mann kennen das sicherlich schon alles.,23_3,8,gram,F,NULL
1650892435,dca940311d64d04a37f3a846b9c68bc8,PennController,30,0,critical,NULL,PennController,31,_Trial_,Start,1650891750375,Du und deine Therapeutin haben anscheinend die gleiche Meinung dazu.,23_3,26,gram,F,NULL
1650892435,dca940311d64d04a37f3a846b9c68bc8,PennController,30,0,critical,NULL,Scale,rating,Choice,5,1650891758014,Du und deine Therapeutin haben anscheinend die gleiche Meinung dazu.,23_3,26,gram,F,NULL
1650892435,dca940311d64d04a37f3a846b9c68bc8,PennController,30,0,critical,NULL,PennController,31,_Trial_,End,1650891758015,Du und deine Therapeutin haben anscheinend die gleiche Meinung dazu.,23_3,26,gram,F,NULL
1650892435,dca940311d64d04a37f3a846b9c68bc8,PennController,73,0,critical,NULL,PennController,74,_Trial_,Start,1650891758016,Abendessen nach dem sie immer spazieren ging. ,filler,139,ungram,F,NULL
1650892435,dca940311d64d04a37f3a846b9c68bc8,PennController,73,0,critical,NULL,Scale,rating,Choice,2,1650891764515,Abendessen nach dem sie immer spazieren ging. ,filler,139,ungram,F,NULL
1650892435,dca940311d64d04a37f3a846b9c68bc8,PennController,73,0,critical,NULL,PennController,74,_Trial_,End,1650891764517,Abendessen nach dem sie immer spazieren ging. ,filler,139,ungram,F,NULL
1650892435,dca940311d64d04a37f3a846b9c68bc8,PennController,15,0,critical,NULL,PennController,16,_Trial_,Start,1650891764519,Das Team und du haben gute Chancen auf den Pokal.,32_3,11,gram,F,NULL
1650892435,dca940311d64d04a37f3a846b9c68bc8,PennController,15,0,critical,NULL,Scale,rating,Choice,5,1650891772805,Das Team und du haben gute Chancen auf den Pokal.,32_3,11,gram,F,NULL
1650892435,dca940311d64d04a37f3a846b9c68bc8,PennController,15,0,critical,NULL,PennController,16,_Trial_,End,1650891772806,Das Team und du haben gute Chancen auf den Pokal.,32_3,11,gram,F,NULL
1650892435,dca940311d64d04a37f3a846b9c68bc8,PennController,76,0,critical,NULL,PennController,77,_Trial_,Start,1650891772808,Das Gemüse und die Kartoffeln ist in kulinarischer Perfektion.,filler,142,ungram,F,NULL
1650892435,dca940311d64d04a37f3a846b9c68bc8,PennController,76,0,critical,NULL,Scale,rating,Choice,1,1650891778940,Das Gemüse und die Kartoffeln ist in kulinarischer Perfektion.,filler,142,ungram,F,NULL
1650892435,dca940311d64d04a37f3a846b9c68bc8,PennController,76,0,critical,NULL,PennController,77,_Trial_,End,1650891778941,Das Gemüse und die Kartoffeln ist in kulinarischer Perfektion.,filler,142,ungram,F,NULL
1650892435,dca940311d64d04a37f3a846b9c68bc8,PennController,64,0,critical,NULL,PennController,65,_Trial_,Start,1650891778941,Der Tisch und die Stühle ist beides aus Eiche.,filler,130,medium,F,NULL
1650892435,dca940311d64d04a37f3a846b9c68bc8,PennController,64,0,critical,NULL,Scale,rating,Choice,1,1650891783750,Der Tisch und die Stühle ist beides aus Eiche.,filler,130,medium,F,NULL
1650892435,dca940311d64d04a37f3a846b9c68bc8,PennController,64,0,critical,NULL,PennController,65,_Trial_,End,1650891783751,Der Tisch und die Stühle ist beides aus Eiche.,filler,130,medium,F,NULL
1650892435,dca940311d64d04a37f3a846b9c68bc8,PennController,5,0,critical,NULL,PennController,6,_Trial_,Start,1650891783752,Dein Bruder und du habe den Film schon gesehen.,32_1,1,ungram,F,NULL
1650892435,dca940311d64d04a37f3a846b9c68bc8,PennController,5,0,critical,NULL,Scale,rating,Choice,1,1650891786711,Dein Bruder und du habe den Film schon gesehen.,32_1,1,ungram,F,NULL
1650892435,dca940311d64d04a37f3a846b9c68bc8,PennController,5,0,critical,NULL,PennController,6,_Trial_,End,1650891786713,Dein Bruder und du habe den Film schon gesehen.,32_1,1,ungram,F,NULL
1650892435,dca940311d64d04a37f3a846b9c68bc8,PennController,56,0,critical,NULL,PennController,57,_Trial_,Start,1650891786715,Der Minister hat zur Wiederwahl von sich aufgerufen.,filler,122,medium,F,NULL
1650892435,dca940311d64d04a37f3a846b9c68bc8,PennController,56,0,critical,NULL,Scale,rating,Choice,1,1650891793245,Der Minister hat zur Wiederwahl von sich aufgerufen.,filler,122,medium,F,NULL
1650892435,dca940311d64d04a37f3a846b9c68bc8,PennController,56,0,critical,NULL,PennController,57,_Trial_,End,1650891793247,Der Minister hat zur Wiederwahl von sich aufgerufen.,filler,122,medium,F,NULL
1650892435,dca940311d64d04a37f3a846b9c68bc8,PennController,31,0,critical,NULL,PennController,32,_Trial_,Start,1650891793249,Du und der Arzt habt mit der Diagnose recht gehabt.,23_2,27,gram,F,NULL
1650892435,dca940311d64d04a37f3a846b9c68bc8,PennController,31,0,critical,NULL,Scale,rating,Choice,4,1650891802135,Du und der Arzt habt mit der Diagnose recht gehabt.,23_2,27,gram,F,NULL
1650892435,dca940311d64d04a37f3a846b9c68bc8,PennController,31,0,critical,NULL,PennController,32,_Trial_,End,1650891802136,Du und der Arzt habt mit der Diagnose recht gehabt.,23_2,27,gram,F,NULL
1650892435,dca940311d64d04a37f3a846b9c68bc8,PennController,33,0,critical,NULL,PennController,34,_Trial_,Start,1650891802138,Maria und du haben den Garten ja völlig verkommen lassen.,32_3,29,gram,F,NULL
1650892435,dca940311d64d04a37f3a846b9c68bc8,PennController,33,0,critical,NULL,Scale,rating,Choice,5,1650891807077,Maria und du haben den Garten ja völlig verkommen lassen.,32_3,29,gram,F,NULL
1650892435,dca940311d64d04a37f3a846b9c68bc8,PennController,33,0,critical,NULL,PennController,34,_Trial_,End,1650891807078,Maria und du haben den Garten ja völlig verkommen lassen.,32_3,29,gram,F,NULL
1650892435,dca940311d64d04a37f3a846b9c68bc8,PennController,17,0,critical,NULL,PennController,18,_Trial_,Start,1650891807080,Deine Schwester und du habe immer gerne im Garten gespielt.,32_1,13,ungram,F,NULL
1650892435,dca940311d64d04a37f3a846b9c68bc8,PennController,17,0,critical,NULL,Scale,rating,Choice,1,1650891809923,Deine Schwester und du habe immer gerne im Garten gespielt.,32_1,13,ungram,F,NULL
1650892435,dca940311d64d04a37f3a846b9c68bc8,PennController,17,0,critical,NULL,PennController,18,_Trial_,End,1650891809925,Deine Schwester und du habe immer gerne im Garten gespielt.,32_1,13,ungram,F,NULL
1650892435,dca940311d64d04a37f3a846b9c68bc8,PennController,14,0,critical,NULL,PennController,15,_Trial_,Start,1650891809927,Du und meine Kollegin habe genau die gleichen Probleme.,23_1,10,ungram,F,NULL
1650892435,dca940311d64d04a37f3a846b9c68bc8,PennController,14,0,critical,NULL,Scale,rating,Choice,1,1650891812615,Du und meine Kollegin habe genau die gleichen Probleme.,23_1,10,ungram,F,NULL
1650892435,dca940311d64d04a37f3a846b9c68bc8,PennController,14,0,critical,NULL,PennController,15,_Trial_,End,1650891812616,Du und meine Kollegin habe genau die gleichen Probleme.,23_1,10,ungram,F,NULL
1650892435,dca940311d64d04a37f3a846b9c68bc8,PennController,35,0,critical,NULL,PennController,36,_Trial_,Start,1650891812619,Ich werde definitiv zur Party kommen.,filler,101,gram,F,NULL
1650892435,dca940311d64d04a37f3a846b9c68bc8,PennController,35,0,critical,NULL,Scale,rating,Choice,5,1650891819828,Ich werde definitiv zur Party kommen.,filler,101,gram,F,NULL
1650892435,dca940311d64d04a37f3a846b9c68bc8,PennController,35,0,critical,NULL,PennController,36,_Trial_,End,1650891819829,Ich werde definitiv zur Party kommen.,filler,101,gram,F,NULL
1650892435,dca940311d64d04a37f3a846b9c68bc8,PennController,25,0,critical,NULL,PennController,26,_Trial_,Start,1650891819831,Du und Tom werdet damit definitiv in Schwierigkeiten geraten.,23_2,21,gram,F,NULL
1650892435,dca940311d64d04a37f3a846b9c68bc8,PennController,25,0,critical,NULL,Scale,rating,Choice,1,1650891832319,Du und Tom werdet damit definitiv in Schwierigkeiten geraten.,23_2,21,gram,F,NULL
1650892435,dca940311d64d04a37f3a846b9c68bc8,PennController,25,0,critical,NULL,PennController,26,_Trial_,End,1650891832320,Du und Tom werdet damit definitiv in Schwierigkeiten geraten.,23_2,21,gram,F,NULL
1650892435,dca940311d64d04a37f3a846b9c68bc8,PennController,53,0,critical,NULL,PennController,54,_Trial_,Start,1650891832322,Keine bessere Idee hatte er auch.,filler,119,medium,F,NULL
1650892435,dca940311d64d04a37f3a846b9c68bc8,PennController,53,0,critical,NULL,Scale,rating,Choice,1,1650891836301,Keine bessere Idee hatte er auch.,filler,119,medium,F,NULL
1650892435,dca940311d64d04a37f3a846b9c68bc8,PennController,53,0,critical,NULL,PennController,54,_Trial_,End,1650891836302,Keine bessere Idee hatte er auch.,filler,119,medium,F,NULL
1650892435,dca940311d64d04a37f3a846b9c68bc8,PennController,67,0,critical,NULL,PennController,68,_Trial_,Start,1650891836303,Wir werden im Weihnachten nie nach Spanien wieder fahren.,filler,133,ungram,F,NULL
1650892435,dca940311d64d04a37f3a846b9c68bc8,PennController,67,0,critical,NULL,Scale,rating,Choice,1,1650891841149,Wir werden im Weihnachten nie nach Spanien wieder fahren.,filler,133,ungram,F,NULL
1650892435,dca940311d64d04a37f3a846b9c68bc8,PennController,67,0,critical,NULL,PennController,68,_Trial_,End,1650891841150,Wir werden im Weihnachten nie nach Spanien wieder fahren.,filler,133,ungram,F,NULL
1650892435,dca940311d64d04a37f3a846b9c68bc8,PennController,70,0,critical,NULL,PennController,71,_Trial_,Start,1650891841151,Ich müsste wieder einmal die Gießen blumen.,filler,136,ungram,F,NULL
1650892435,dca940311d64d04a37f3a846b9c68bc8,PennController,70,0,critical,NULL,Scale,rating,Choice,1,1650891844985,Ich müsste wieder einmal die Gießen blumen.,filler,136,ungram,F,NULL
1650892435,dca940311d64d04a37f3a846b9c68bc8,PennController,70,0,critical,NULL,PennController,71,_Trial_,End,1650891844986,Ich müsste wieder einmal die Gießen blumen.,filler,136,ungram,F,NULL
1650892435,dca940311d64d04a37f3a846b9c68bc8,PennController,48,0,critical,NULL,PennController,49,_Trial_,Start,1650891844987,Weder der Anwalt noch die Klägerin hätten damit gerechnet.,filler,114,gram,F,NULL
1650892435,dca940311d64d04a37f3a846b9c68bc8,PennController,48,0,critical,NULL,Scale,rating,Choice,4,1650891860391,Weder der Anwalt noch die Klägerin hätten damit gerechnet.,filler,114,gram,F,NULL
1650892435,dca940311d64d04a37f3a846b9c68bc8,PennController,48,0,critical,NULL,PennController,49,_Trial_,End,1650891860392,Weder der Anwalt noch die Klägerin hätten damit gerechnet.,filler,114,gram,F,NULL
1650892435,dca940311d64d04a37f3a846b9c68bc8,PennController,10,0,critical,NULL,PennController,11,_Trial_,Start,1650891860393,Der Junge und du macht viel zu viel Lärm.,32_2,6,gram,F,NULL
1650892435,dca940311d64d04a37f3a846b9c68bc8,PennController,10,0,critical,NULL,Scale,rating,Choice,2,1650891869413,Der Junge und du macht viel zu viel Lärm.,32_2,6,gram,F,NULL
1650892435,dca940311d64d04a37f3a846b9c68bc8,PennController,10,0,critical,NULL,PennController,11,_Trial_,End,1650891869413,Der Junge und du macht viel zu viel Lärm.,32_2,6,gram,F,NULL
1650892435,dca940311d64d04a37f3a846b9c68bc8,PennController,38,0,critical,NULL,PennController,39,_Trial_,Start,1650891869415,Wir haben keine Zeit für lange Diskussionen.,filler,104,gram,F,NULL
1650892435,dca940311d64d04a37f3a846b9c68bc8,PennController,38,0,critical,NULL,Scale,rating,Choice,5,1650891875200,Wir haben keine Zeit für lange Diskussionen.,filler,104,gram,F,NULL
1650892435,dca940311d64d04a37f3a846b9c68bc8,PennController,38,0,critical,NULL,PennController,39,_Trial_,End,1650891875201,Wir haben keine Zeit für lange Diskussionen.,filler,104,gram,F,NULL
1650892435,dca940311d64d04a37f3a846b9c68bc8,PennController,36,0,critical,NULL,PennController,37,_Trial_,Start,1650891875202,Die Präsidentschaftswahlen finden nächsten Monat statt.,filler,102,gram,F,NULL
1650892435,dca940311d64d04a37f3a846b9c68bc8,PennController,36,0,critical,NULL,Scale,rating,Choice,5,1650891879915,Die Präsidentschaftswahlen finden nächsten Monat statt.,filler,102,gram,F,NULL
1650892435,dca940311d64d04a37f3a846b9c68bc8,PennController,36,0,critical,NULL,PennController,37,_Trial_,End,1650891879915,Die Präsidentschaftswahlen finden nächsten Monat statt.,filler,102,gram,F,NULL
1650892435,dca940311d64d04a37f3a846b9c68bc8,PennController,63,0,critical,NULL,PennController,64,_Trial_,Start,1650891879917,Eine neue Matratze bräuchte ich und bessere Vorhänge.,filler,129,medium,F,NULL
1650892435,dca940311d64d04a37f3a846b9c68bc8,PennController,63,0,critical,NULL,Scale,rating,Choice,3,1650891889428,Eine neue Matratze bräuchte ich und bessere Vorhänge.,filler,129,medium,F,NULL
1650892435,dca940311d64d04a37f3a846b9c68bc8,PennController,63,0,critical,NULL,PennController,64,_Trial_,End,1650891889429,Eine neue Matratze bräuchte ich und bessere Vorhänge.,filler,129,medium,F,NULL
1650892435,dca940311d64d04a37f3a846b9c68bc8,PennController,44,0,critical,NULL,PennController,45,_Trial_,Start,1650891889431,Du solltest dir darüber wirklich Gedanken machen.,filler,110,gram,F,NULL
1650892435,dca940311d64d04a37f3a846b9c68bc8,PennController,44,0,critical,NULL,Scale,rating,Choice,5,1650891893319,Du solltest dir darüber wirklich Gedanken machen.,filler,110,gram,F,NULL
1650892435,dca940311d64d04a37f3a846b9c68bc8,PennController,44,0,critical,NULL,PennController,45,_Trial_,End,1650891893320,Du solltest dir darüber wirklich Gedanken machen.,filler,110,gram,F,NULL
1650892435,dca940311d64d04a37f3a846b9c68bc8,PennController,28,0,critical,NULL,PennController,29,_Trial_,Start,1650891893321,Dein Verlobter und du werdet hoffentlich eine schöne Hochzeit haben.,32_2,24,gram,F,NULL
1650892435,dca940311d64d04a37f3a846b9c68bc8,PennController,28,0,critical,NULL,Scale,rating,Choice,2,1650891901939,Dein Verlobter und du werdet hoffentlich eine schöne Hochzeit haben.,32_2,24,gram,F,NULL
1650892435,dca940311d64d04a37f3a846b9c68bc8,PennController,28,0,critical,NULL,PennController,29,_Trial_,End,1650891901940,Dein Verlobter und du werdet hoffentlich eine schöne Hochzeit haben.,32_2,24,gram,F,NULL
1650892435,dca940311d64d04a37f3a846b9c68bc8,PennController,11,0,critical,NULL,PennController,12,_Trial_,Start,1650891901941,Der andere Lehrer und du werde noch einige schwierige Fälle erleben.,32_1,7,ungram,F,NULL
1650892435,dca940311d64d04a37f3a846b9c68bc8,PennController,11,0,critical,NULL,Scale,rating,Choice,1,1650891904320,Der andere Lehrer und du werde noch einige schwierige Fälle erleben.,32_1,7,ungram,F,NULL
1650892435,dca940311d64d04a37f3a846b9c68bc8,PennController,11,0,critical,NULL,PennController,12,_Trial_,End,1650891904321,Der andere Lehrer und du werde noch einige schwierige Fälle erleben.,32_1,7,ungram,F,NULL
1650892435,dca940311d64d04a37f3a846b9c68bc8,PennController,32,0,critical,NULL,PennController,33,_Trial_,Start,1650891904323,Du und Kofi habe eine wirklich tolle Leistung gezeigt.,23_1,28,ungram,F,NULL
1650892435,dca940311d64d04a37f3a846b9c68bc8,PennController,32,0,critical,NULL,Scale,rating,Choice,1,1650891907577,Du und Kofi habe eine wirklich tolle Leistung gezeigt.,23_1,28,ungram,F,NULL
1650892435,dca940311d64d04a37f3a846b9c68bc8,PennController,32,0,critical,NULL,PennController,33,_Trial_,End,1650891907578,Du und Kofi habe eine wirklich tolle Leistung gezeigt.,23_1,28,ungram,F,NULL
1650892435,dca940311d64d04a37f3a846b9c68bc8,PennController,66,0,critical,NULL,PennController,67,_Trial_,Start,1650891907579,Nicht jede Baum verlieren Blatt im Herbst.,filler,132,ungram,F,NULL
1650892435,dca940311d64d04a37f3a846b9c68bc8,PennController,66,0,critical,NULL,Scale,rating,Choice,1,1650891910174,Nicht jede Baum verlieren Blatt im Herbst.,filler,132,ungram,F,NULL
1650892435,dca940311d64d04a37f3a846b9c68bc8,PennController,66,0,critical,NULL,PennController,67,_Trial_,End,1650891910176,Nicht jede Baum verlieren Blatt im Herbst.,filler,132,ungram,F,NULL
1650892435,dca940311d64d04a37f3a846b9c68bc8,PennController,26,0,critical,NULL,PennController,27,_Trial_,Start,1650891910177,Du und der Anstreicher habe wirklich gute Arbeit geleistet.,23_1,22,ungram,F,NULL
1650892435,dca940311d64d04a37f3a846b9c68bc8,PennController,26,0,critical,NULL,Scale,rating,Choice,1,1650891912332,Du und der Anstreicher habe wirklich gute Arbeit geleistet.,23_1,22,ungram,F,NULL
1650892435,dca940311d64d04a37f3a846b9c68bc8,PennController,26,0,critical,NULL,PennController,27,_Trial_,End,1650891912333,Du und der Anstreicher habe wirklich gute Arbeit geleistet.,23_1,22,ungram,F,NULL
1650892435,dca940311d64d04a37f3a846b9c68bc8,PennController,57,0,critical,NULL,PennController,58,_Trial_,Start,1650891912334,Ein Buch würde sie am liebsten schreiben über die Geschichte Norditaliens.,filler,123,medium,F,NULL
1650892435,dca940311d64d04a37f3a846b9c68bc8,PennController,57,0,critical,NULL,Scale,rating,Choice,2,1650891916322,Ein Buch würde sie am liebsten schreiben über die Geschichte Norditaliens.,filler,123,medium,F,NULL
1650892435,dca940311d64d04a37f3a846b9c68bc8,PennController,57,0,critical,NULL,PennController,58,_Trial_,End,1650891916323,Ein Buch würde sie am liebsten schreiben über die Geschichte Norditaliens.,filler,123,medium,F,NULL
1650892435,dca940311d64d04a37f3a846b9c68bc8,PennController,51,0,critical,NULL,PennController,52,_Trial_,Start,1650891916324,Beschreibungen vom Tatort waren nicht unvollständig.,filler,117,medium,F,NULL
1650892435,dca940311d64d04a37f3a846b9c68bc8,PennController,51,0,critical,NULL,Scale,rating,Choice,2,1650891924057,Beschreibungen vom Tatort waren nicht unvollständig.,filler,117,medium,F,NULL
1650892435,dca940311d64d04a37f3a846b9c68bc8,PennController,51,0,critical,NULL,PennController,52,_Trial_,End,1650891924058,Beschreibungen vom Tatort waren nicht unvollständig.,filler,117,medium,F,NULL
1650892435,dca940311d64d04a37f3a846b9c68bc8,PennController,65,0,critical,NULL,PennController,66,_Trial_,Start,1650891924059,Das nie vergessen ich dir werde.,filler,131,ungram,F,NULL
1650892435,dca940311d64d04a37f3a846b9c68bc8,PennController,65,0,critical,NULL,Scale,rating,Choice,1,1650891925732,Das nie vergessen ich dir werde.,filler,131,ungram,F,NULL
1650892435,dca940311d64d04a37f3a846b9c68bc8,PennController,65,0,critical,NULL,PennController,66,_Trial_,End,1650891925733,Das nie vergessen ich dir werde.,filler,131,ungram,F,NULL
1650892435,dca940311d64d04a37f3a846b9c68bc8,PennController,41,0,critical,NULL,PennController,42,_Trial_,Start,1650891925734,Deine Freunde sind alle immer so unfreundlich.,filler,107,gram,F,NULL
1650892435,dca940311d64d04a37f3a846b9c68bc8,PennController,41,0,critical,NULL,Scale,rating,Choice,5,1650891934342,Deine Freunde sind alle immer so unfreundlich.,filler,107,gram,F,NULL
1650892435,dca940311d64d04a37f3a846b9c68bc8,PennController,41,0,critical,NULL,PennController,42,_Trial_,End,1650891934343,Deine Freunde sind alle immer so unfreundlich.,filler,107,gram,F,NULL
1650892435,dca940311d64d04a37f3a846b9c68bc8,PennController,78,0,critical,NULL,PennController,79,_Trial_,Start,1650891934344,Chemikalien haben Flüsse und andere Gewässer verseucht sollen.,filler,144,ungram,F,NULL
1650892435,dca940311d64d04a37f3a846b9c68bc8,PennController,78,0,critical,NULL,Scale,rating,Choice,1,1650891937836,Chemikalien haben Flüsse und andere Gewässer verseucht sollen.,filler,144,ungram,F,NULL
1650892435,dca940311d64d04a37f3a846b9c68bc8,PennController,78,0,critical,NULL,PennController,79,_Trial_,End,1650891937837,Chemikalien haben Flüsse und andere Gewässer verseucht sollen.,filler,144,ungram,F,NULL
1650892435,dca940311d64d04a37f3a846b9c68bc8,PennController,61,0,critical,NULL,PennController,62,_Trial_,Start,1650891937838,Für Auto- und Radfahrer lohnt sich beide eine gute Versicherung.,filler,127,medium,F,NULL
1650892435,dca940311d64d04a37f3a846b9c68bc8,PennController,61,0,critical,NULL,Scale,rating,Choice,1,1650891943882,Für Auto- und Radfahrer lohnt sich beide eine gute Versicherung.,filler,127,medium,F,NULL
1650892435,dca940311d64d04a37f3a846b9c68bc8,PennController,61,0,critical,NULL,PennController,62,_Trial_,End,1650891943883,Für Auto- und Radfahrer lohnt sich beide eine gute Versicherung.,filler,127,medium,F,NULL
1650892435,dca940311d64d04a37f3a846b9c68bc8,PennController,13,0,critical,NULL,PennController,14,_Trial_,Start,1650891943884,Du und der Nachbar habt die Hecke nicht ordentlich geschnitten.,23_2,9,gram,F,NULL
1650892435,dca940311d64d04a37f3a846b9c68bc8,PennController,13,0,critical,NULL,Scale,rating,Choice,2,1650891948390,Du und der Nachbar habt die Hecke nicht ordentlich geschnitten.,23_2,9,gram,F,NULL
1650892435,dca940311d64d04a37f3a846b9c68bc8,PennController,13,0,critical,NULL,PennController,14,_Trial_,End,1650891948391,Du und der Nachbar habt die Hecke nicht ordentlich geschnitten.,23_2,9,gram,F,NULL
1650892435,dca940311d64d04a37f3a846b9c68bc8,PennController,23,0,critical,NULL,PennController,24,_Trial_,Start,1650891948392,Deine Frau und du habe die neue Veranda bestimmt schon einmal gesehen.,32_1,19,ungram,F,NULL
1650892435,dca940311d64d04a37f3a846b9c68bc8,PennController,23,0,critical,NULL,Scale,rating,Choice,1,1650891950888,Deine Frau und du habe die neue Veranda bestimmt schon einmal gesehen.,32_1,19,ungram,F,NULL
1650892435,dca940311d64d04a37f3a846b9c68bc8,PennController,23,0,critical,NULL,PennController,24,_Trial_,End,1650891950889,Deine Frau und du habe die neue Veranda bestimmt schon einmal gesehen.,32_1,19,ungram,F,NULL
1650892435,dca940311d64d04a37f3a846b9c68bc8,PennController,27,0,critical,NULL,PennController,28,_Trial_,Start,1650891950890,Robin und du haben ungefähr die gleiche Größe.,32_3,23,gram,F,NULL
1650892435,dca940311d64d04a37f3a846b9c68bc8,PennController,27,0,critical,NULL,Scale,rating,Choice,5,1650891953230,Robin und du haben ungefähr die gleiche Größe.,32_3,23,gram,F,NULL
1650892435,dca940311d64d04a37f3a846b9c68bc8,PennController,27,0,critical,NULL,PennController,28,_Trial_,End,1650891953232,Robin und du haben ungefähr die gleiche Größe.,32_3,23,gram,F,NULL
1650892435,dca940311d64d04a37f3a846b9c68bc8,PennController,75,0,critical,NULL,PennController,76,_Trial_,Start,1650891953233,Alle Teilnehmerinnen und Teilnehmer bekommt eine Urkunde ausgestellt.,filler,141,ungram,F,NULL
1650892435,dca940311d64d04a37f3a846b9c68bc8,PennController,75,0,critical,NULL,Scale,rating,Choice,1,1650891958418,Alle Teilnehmerinnen und Teilnehmer bekommt eine Urkunde ausgestellt.,filler,141,ungram,F,NULL
1650892435,dca940311d64d04a37f3a846b9c68bc8,PennController,75,0,critical,NULL,PennController,76,_Trial_,End,1650891958419,Alle Teilnehmerinnen und Teilnehmer bekommt eine Urkunde ausgestellt.,filler,141,ungram,F,NULL
1650892435,dca940311d64d04a37f3a846b9c68bc8,PennController,24,0,critical,NULL,PennController,25,_Trial_,Start,1650891958421,Du und dein Anwalt haben den Prozess nur wegen Verfahrensfehler gewonnen. ,23_3,20,gram,F,NULL
1650892435,dca940311d64d04a37f3a846b9c68bc8,PennController,24,0,critical,NULL,Scale,rating,Choice,5,1650891961024,Du und dein Anwalt haben den Prozess nur wegen Verfahrensfehler gewonnen. ,23_3,20,gram,F,NULL
1650892435,dca940311d64d04a37f3a846b9c68bc8,PennController,24,0,critical,NULL,PennController,25,_Trial_,End,1650891961025,Du und dein Anwalt haben den Prozess nur wegen Verfahrensfehler gewonnen. ,23_3,20,gram,F,NULL
1650892435,dca940311d64d04a37f3a846b9c68bc8,PennController,62,0,critical,NULL,PennController,63,_Trial_,Start,1650891961026,Tiere und Pflanzen fühlen sich in der Sonne besonders wohlig.,filler,128,medium,F,NULL
1650892435,dca940311d64d04a37f3a846b9c68bc8,PennController,62,0,critical,NULL,Scale,rating,Choice,2,1650891969554,Tiere und Pflanzen fühlen sich in der Sonne besonders wohlig.,filler,128,medium,F,NULL
1650892435,dca940311d64d04a37f3a846b9c68bc8,PennController,62,0,critical,NULL,PennController,63,_Trial_,End,1650891969555,Tiere und Pflanzen fühlen sich in der Sonne besonders wohlig.,filler,128,medium,F,NULL
1650892435,dca940311d64d04a37f3a846b9c68bc8,PennController,60,0,critical,NULL,PennController,61,_Trial_,Start,1650891969556,Sowohl Eltern als auch Kinder profitieren durch gesunde Ernährung.,filler,126,medium,F,NULL
1650892435,dca940311d64d04a37f3a846b9c68bc8,PennController,60,0,critical,NULL,Scale,rating,Choice,5,1650891976562,Sowohl Eltern als auch Kinder profitieren durch gesunde Ernährung.,filler,126,medium,F,NULL
1650892435,dca940311d64d04a37f3a846b9c68bc8,PennController,60,0,critical,NULL,PennController,61,_Trial_,End,1650891976563,Sowohl Eltern als auch Kinder profitieren durch gesunde Ernährung.,filler,126,medium,F,NULL
1650892435,dca940311d64d04a37f3a846b9c68bc8,PennController,79,0,critical,NULL,PennController,80,_Trial_,Start,1650891976564,Die UN rief zur Stärkung von Kleinbauern und das Bildungssystem auf.,filler,145,ungram,F,NULL
1650892435,dca940311d64d04a37f3a846b9c68bc8,PennController,79,0,critical,NULL,Scale,rating,Choice,1,1650891982515,Die UN rief zur Stärkung von Kleinbauern und das Bildungssystem auf.,filler,145,ungram,F,NULL
1650892435,dca940311d64d04a37f3a846b9c68bc8,PennController,79,0,critical,NULL,PennController,80,_Trial_,End,1650891982516,Die UN rief zur Stärkung von Kleinbauern und das Bildungssystem auf.,filler,145,ungram,F,NULL
1650892435,dca940311d64d04a37f3a846b9c68bc8,PennController,9,0,critical,NULL,PennController,10,_Trial_,Start,1650891982517,Erik und du haben die Schlüssel vielleicht zuhause vergessen.,32_3,5,gram,F,NULL
1650892435,dca940311d64d04a37f3a846b9c68bc8,PennController,9,0,critical,NULL,Scale,rating,Choice,5,1650891989066,Erik und du haben die Schlüssel vielleicht zuhause vergessen.,32_3,5,gram,F,NULL
1650892435,dca940311d64d04a37f3a846b9c68bc8,PennController,9,0,critical,NULL,PennController,10,_Trial_,End,1650891989067,Erik und du haben die Schlüssel vielleicht zuhause vergessen.,32_3,5,gram,F,NULL
1650892435,dca940311d64d04a37f3a846b9c68bc8,PennController,68,0,critical,NULL,PennController,69,_Trial_,Start,1650891989068,Die EU die Internet regulieren will angeblich.,filler,134,ungram,F,NULL
1650892435,dca940311d64d04a37f3a846b9c68bc8,PennController,68,0,critical,NULL,Scale,rating,Choice,1,1650891991586,Die EU die Internet regulieren will angeblich.,filler,134,ungram,F,NULL
1650892435,dca940311d64d04a37f3a846b9c68bc8,PennController,68,0,critical,NULL,PennController,69,_Trial_,End,1650891991587,Die EU die Internet regulieren will angeblich.,filler,134,ungram,F,NULL
1650892435,dca940311d64d04a37f3a846b9c68bc8,PennController,55,0,critical,NULL,PennController,56,_Trial_,Start,1650891991589,Die Uhren werden umgestellt jedes Jahr im März und Oktober.,filler,121,medium,F,NULL
1650892435,dca940311d64d04a37f3a846b9c68bc8,PennController,55,0,critical,NULL,Scale,rating,Choice,1,1650892005737,Die Uhren werden umgestellt jedes Jahr im März und Oktober.,filler,121,medium,F,NULL
1650892435,dca940311d64d04a37f3a846b9c68bc8,PennController,55,0,critical,NULL,PennController,56,_Trial_,End,1650892005737,Die Uhren werden umgestellt jedes Jahr im März und Oktober.,filler,121,medium,F,NULL
1650892435,dca940311d64d04a37f3a846b9c68bc8,PennController,46,0,critical,NULL,PennController,47,_Trial_,Start,1650892005740,Jungen und Mädchen werden getrennt untergebracht. ,filler,112,gram,F,NULL
1650892435,dca940311d64d04a37f3a846b9c68bc8,PennController,46,0,critical,NULL,Scale,rating,Choice,5,1650892010034,Jungen und Mädchen werden getrennt untergebracht. ,filler,112,gram,F,NULL
1650892435,dca940311d64d04a37f3a846b9c68bc8,PennController,46,0,critical,NULL,PennController,47,_Trial_,End,1650892010035,Jungen und Mädchen werden getrennt untergebracht. ,filler,112,gram,F,NULL
1650892435,dca940311d64d04a37f3a846b9c68bc8,PennController,54,0,critical,NULL,PennController,55,_Trial_,Start,1650892010036,Der Schiffsverkehr lag drei Tage gelähmt.,filler,120,medium,F,NULL
1650892435,dca940311d64d04a37f3a846b9c68bc8,PennController,54,0,critical,NULL,Scale,rating,Choice,1,1650892012340,Der Schiffsverkehr lag drei Tage gelähmt.,filler,120,medium,F,NULL
1650892435,dca940311d64d04a37f3a846b9c68bc8,PennController,54,0,critical,NULL,PennController,55,_Trial_,End,1650892012341,Der Schiffsverkehr lag drei Tage gelähmt.,filler,120,medium,F,NULL
1650892435,dca940311d64d04a37f3a846b9c68bc8,PennController,58,0,critical,NULL,PennController,59,_Trial_,Start,1650892012342,Genauere Daten müssen noch ermittelt werden zur Verbreitung der Krankheit.,filler,124,medium,F,NULL
1650892435,dca940311d64d04a37f3a846b9c68bc8,PennController,58,0,critical,NULL,Scale,rating,Choice,1,1650892018037,Genauere Daten müssen noch ermittelt werden zur Verbreitung der Krankheit.,filler,124,medium,F,NULL
1650892435,dca940311d64d04a37f3a846b9c68bc8,PennController,58,0,critical,NULL,PennController,59,_Trial_,End,1650892018039,Genauere Daten müssen noch ermittelt werden zur Verbreitung der Krankheit.,filler,124,medium,F,NULL
1650892435,dca940311d64d04a37f3a846b9c68bc8,PennController,20,0,critical,NULL,PennController,21,_Trial_,Start,1650892018040,Du und deine Vorgesetzte komme wohl nicht so gut miteinander aus. ,23_1,16,ungram,F,NULL
1650892435,dca940311d64d04a37f3a846b9c68bc8,PennController,20,0,critical,NULL,Scale,rating,Choice,1,1650892019971,Du und deine Vorgesetzte komme wohl nicht so gut miteinander aus. ,23_1,16,ungram,F,NULL
1650892435,dca940311d64d04a37f3a846b9c68bc8,PennController,20,0,critical,NULL,PennController,21,_Trial_,End,1650892019972,Du und deine Vorgesetzte komme wohl nicht so gut miteinander aus. ,23_1,16,ungram,F,NULL
1650892435,dca940311d64d04a37f3a846b9c68bc8,PennController,37,0,critical,NULL,PennController,38,_Trial_,Start,1650892019974,Fast alle Gewerkschaften haben heutzutage nur noch wenige Mitglieder.,filler,103,gram,F,NULL
1650892435,dca940311d64d04a37f3a846b9c68bc8,PennController,37,0,critical,NULL,Scale,rating,Choice,5,1650892024131,Fast alle Gewerkschaften haben heutzutage nur noch wenige Mitglieder.,filler,103,gram,F,NULL
1650892435,dca940311d64d04a37f3a846b9c68bc8,PennController,37,0,critical,NULL,PennController,38,_Trial_,End,1650892024132,Fast alle Gewerkschaften haben heutzutage nur noch wenige Mitglieder.,filler,103,gram,F,NULL
1650892435,dca940311d64d04a37f3a846b9c68bc8,PennController,8,0,critical,NULL,PennController,9,_Trial_,Start,1650892024133,Du und meine Freundin habe viel gemeinsam.,23_1,4,ungram,F,NULL
1650892435,dca940311d64d04a37f3a846b9c68bc8,PennController,8,0,critical,NULL,Scale,rating,Choice,1,1650892033858,Du und meine Freundin habe viel gemeinsam.,23_1,4,ungram,F,NULL
1650892435,dca940311d64d04a37f3a846b9c68bc8,PennController,8,0,critical,NULL,PennController,9,_Trial_,End,1650892033859,Du und meine Freundin habe viel gemeinsam.,23_1,4,ungram,F,NULL
1650892435,dca940311d64d04a37f3a846b9c68bc8,PennController,39,0,critical,NULL,PennController,40,_Trial_,Start,1650892033860,Die Reparaturen sollten ungefähr drei Jahre dauern.,filler,105,gram,F,NULL
1650892435,dca940311d64d04a37f3a846b9c68bc8,PennController,39,0,critical,NULL,Scale,rating,Choice,4,1650892044601,Die Reparaturen sollten ungefähr drei Jahre dauern.,filler,105,gram,F,NULL
1650892435,dca940311d64d04a37f3a846b9c68bc8,PennController,39,0,critical,NULL,PennController,40,_Trial_,End,1650892044602,Die Reparaturen sollten ungefähr drei Jahre dauern.,filler,105,gram,F,NULL
1650892435,dca940311d64d04a37f3a846b9c68bc8,PennController,77,0,critical,NULL,PennController,78,_Trial_,Start,1650892044603,Genannt wurden insbesondere die Leiterin und das Leiter. ,filler,143,ungram,F,NULL
1650892435,dca940311d64d04a37f3a846b9c68bc8,PennController,77,0,critical,NULL,Scale,rating,Choice,1,1650892049774,Genannt wurden insbesondere die Leiterin und das Leiter. ,filler,143,ungram,F,NULL
1650892435,dca940311d64d04a37f3a846b9c68bc8,PennController,77,0,critical,NULL,PennController,78,_Trial_,End,1650892049775,Genannt wurden insbesondere die Leiterin und das Leiter. ,filler,143,ungram,F,NULL
1650892435,dca940311d64d04a37f3a846b9c68bc8,PennController,52,0,critical,NULL,PennController,53,_Trial_,Start,1650892049776,So eine Kampagne gegen sich sollte ihm Sorgen machen.,filler,118,medium,F,NULL
1650892435,dca940311d64d04a37f3a846b9c68bc8,PennController,52,0,critical,NULL,Scale,rating,Choice,4,1650892060071,So eine Kampagne gegen sich sollte ihm Sorgen machen.,filler,118,medium,F,NULL
1650892435,dca940311d64d04a37f3a846b9c68bc8,PennController,52,0,critical,NULL,PennController,53,_Trial_,End,1650892060072,So eine Kampagne gegen sich sollte ihm Sorgen machen.,filler,118,medium,F,NULL
1650892435,dca940311d64d04a37f3a846b9c68bc8,PennController,18,0,critical,NULL,PennController,19,_Trial_,Start,1650892060073,Du und die Polizistin haben die Angelegenheit gut geregelt.,23_3,14,gram,F,NULL
1650892435,dca940311d64d04a37f3a846b9c68bc8,PennController,18,0,critical,NULL,Scale,rating,Choice,5,1650892067245,Du und die Polizistin haben die Angelegenheit gut geregelt.,23_3,14,gram,F,NULL
1650892435,dca940311d64d04a37f3a846b9c68bc8,PennController,18,0,critical,NULL,PennController,19,_Trial_,End,1650892067246,Du und die Polizistin haben die Angelegenheit gut geregelt.,23_3,14,gram,F,NULL
1650892435,dca940311d64d04a37f3a846b9c68bc8,PennController,43,0,critical,NULL,PennController,44,_Trial_,Start,1650892067247,Meine Eltern haben mir zum Geburtstag neue Socken geschenkt.,filler,109,gram,F,NULL
1650892435,dca940311d64d04a37f3a846b9c68bc8,PennController,43,0,critical,NULL,Scale,rating,Choice,5,1650892073251,Meine Eltern haben mir zum Geburtstag neue Socken geschenkt.,filler,109,gram,F,NULL
1650892435,dca940311d64d04a37f3a846b9c68bc8,PennController,43,0,critical,NULL,PennController,44,_Trial_,End,1650892073253,Meine Eltern haben mir zum Geburtstag neue Socken geschenkt.,filler,109,gram,F,NULL
1650892435,dca940311d64d04a37f3a846b9c68bc8,PennController,50,0,critical,NULL,PennController,51,_Trial_,Start,1650892073253,Das Datum zu ändern sie immer vergaß.,filler,116,medium,F,NULL
1650892435,dca940311d64d04a37f3a846b9c68bc8,PennController,50,0,critical,NULL,Scale,rating,Choice,1,1650892075709,Das Datum zu ändern sie immer vergaß.,filler,116,medium,F,NULL
1650892435,dca940311d64d04a37f3a846b9c68bc8,PennController,50,0,critical,NULL,PennController,51,_Trial_,End,1650892075710,Das Datum zu ändern sie immer vergaß.,filler,116,medium,F,NULL
1650892435,dca940311d64d04a37f3a846b9c68bc8,PennController,74,0,critical,NULL,PennController,75,_Trial_,Start,1650892075713,Der Plan aufging leider nicht ganz. ,filler,140,ungram,F,NULL
1650892435,dca940311d64d04a37f3a846b9c68bc8,PennController,74,0,critical,NULL,Scale,rating,Choice,1,1650892077735,Der Plan aufging leider nicht ganz. ,filler,140,ungram,F,NULL
1650892435,dca940311d64d04a37f3a846b9c68bc8,PennController,74,0,critical,NULL,PennController,75,_Trial_,End,1650892077736,Der Plan aufging leider nicht ganz. ,filler,140,ungram,F,NULL
1650892435,dca940311d64d04a37f3a846b9c68bc8,PennController,45,0,critical,NULL,PennController,46,_Trial_,Start,1650892077737,Ich und meine Freundin haben uns schon vor zwei Jahren getrennt.,filler,111,gram,F,NULL
1650892435,dca940311d64d04a37f3a846b9c68bc8,PennController,45,0,critical,NULL,Scale,rating,Choice,5,1650892081873,Ich und meine Freundin haben uns schon vor zwei Jahren getrennt.,filler,111,gram,F,NULL
1650892435,dca940311d64d04a37f3a846b9c68bc8,PennController,45,0,critical,NULL,PennController,46,_Trial_,End,1650892081874,Ich und meine Freundin haben uns schon vor zwei Jahren getrennt.,filler,111,gram,F,NULL
# 13. Comments.
1650892435,dca940311d64d04a37f3a846b9c68bc8,PennController,80,0,dialect,NULL,PennController,3,_Trial_,Start,1650892081875,NULL
1650892435,dca940311d64d04a37f3a846b9c68bc8,PennController,80,0,dialect,NULL,TextInput,dialect-input,First,,1650892087313,<
1650892435,dca940311d64d04a37f3a846b9c68bc8,PennController,80,0,dialect,NULL,TextInput,dialect-input,Final,Nein,1650892094553,NULL
1650892435,dca940311d64d04a37f3a846b9c68bc8,PennController,80,0,dialect,NULL,PennController,3,_Trial_,End,1650892094554,NULL
1650892435,dca940311d64d04a37f3a846b9c68bc8,PennController,81,0,feedback,NULL,PennController,4,_Trial_,Start,1650892094555,NULL
1650892435,dca940311d64d04a37f3a846b9c68bc8,PennController,81,0,feedback,NULL,TextInput,feedback-input,First,,1650892122100,Shift
1650892435,dca940311d64d04a37f3a846b9c68bc8,PennController,81,0,feedback,NULL,TextInput,feedback-input,Final,Manche Formulierungen werden durch Pausen akzeptabel. Wenn jedoch im Text keine Kommata verwendet werden%2C so ist die Einfügung dieser Pausen eine Abweichung vom Originaltext. Manche Fragen habe ich zu schnell beantwortet%2C und dabei ist mir aufgefallen%2C dass ich in Gedanken Ergänzungen%2C teilweise Personalpronomen oder eben Pausen%2C einfüge. Der Klang der Sätze wäre bei lautem Aufsagen anders und infolgedessen meine Bewertung der Grammatikalität geringer.,1650892433831,NULL
1650892435,dca940311d64d04a37f3a846b9c68bc8,PennController,81,0,feedback,NULL,PennController,4,_Trial_,End,1650892433831,NULL
#
# Results on Mon, 25 Apr 2022 16:12:44 GMT
# USER AGENT: Mozilla/5.0 (Windows NT 10.0; Win64; x64) AppleWebKit/537.36 (KHTML, like Gecko) Chrome/100.0.4896.75 Safari/537.36
# Design number was non-random = 17
#
# Columns below this comment are as follows:
# 1. Results reception time.
# 2. MD5 hash of participant's IP address.
# 3. Controller name.
# 4. Order number of item.
# 5. Inner element number.
# 6. Label.
# 7. Latin Square Group.
# 8. PennElementType.
# 9. PennElementName.
# 10. Parameter.
# 11. Value.
# 12. EventTime.
# 13. Comments.
1650903164,861592159a36835e6813527b1adf2b85,PennController,2,0,welcome,NULL,PennController,0,_Trial_,Start,1650902720577,NULL
1650903164,861592159a36835e6813527b1adf2b85,PennController,2,0,welcome,NULL,PennController,0,_Trial_,End,1650902725757,NULL
1650903164,861592159a36835e6813527b1adf2b85,PennController,3,0,intro,NULL,PennController,1,_Trial_,Start,1650902725758,NULL
1650903164,861592159a36835e6813527b1adf2b85,PennController,3,0,intro,NULL,PennController,1,_Trial_,End,1650902727694,NULL
1650903164,861592159a36835e6813527b1adf2b85,PennController,4,0,data,NULL,PennController,2,_Trial_,Start,1650902727695,NULL
1650903164,861592159a36835e6813527b1adf2b85,PennController,4,0,data,NULL,PennController,2,_Trial_,End,1650902732444,NULL
# 13. Sentence.
# 14. Condition.
# 15. Item_set.
# 16. Correct.
# 17. Group.
# 18. Comments.
1650903164,861592159a36835e6813527b1adf2b85,PennController,40,0,critical,NULL,PennController,41,_Trial_,Start,1650902732445,Normalerweise schneit es im Januar.,filler,106,gram,F,NULL
1650903164,861592159a36835e6813527b1adf2b85,PennController,40,0,critical,NULL,Scale,rating,Choice,5,1650902737089,Normalerweise schneit es im Januar.,filler,106,gram,F,NULL
1650903164,861592159a36835e6813527b1adf2b85,PennController,40,0,critical,NULL,PennController,41,_Trial_,End,1650902737089,Normalerweise schneit es im Januar.,filler,106,gram,F,NULL
1650903164,861592159a36835e6813527b1adf2b85,PennController,78,0,critical,NULL,PennController,79,_Trial_,Start,1650902737090,Chemikalien haben Flüsse und andere Gewässer verseucht sollen.,filler,144,ungram,F,NULL
1650903164,861592159a36835e6813527b1adf2b85,PennController,78,0,critical,NULL,Scale,rating,Choice,1,1650902741418,Chemikalien haben Flüsse und andere Gewässer verseucht sollen.,filler,144,ungram,F,NULL
1650903164,861592159a36835e6813527b1adf2b85,PennController,78,0,critical,NULL,PennController,79,_Trial_,End,1650902741419,Chemikalien haben Flüsse und andere Gewässer verseucht sollen.,filler,144,ungram,F,NULL
1650903164,861592159a36835e6813527b1adf2b85,PennController,79,0,critical,NULL,PennController,80,_Trial_,Start,1650902741419,Die UN rief zur Stärkung von Kleinbauern und das Bildungssystem auf.,filler,145,ungram,F,NULL
1650903164,861592159a36835e6813527b1adf2b85,PennController,79,0,critical,NULL,Scale,rating,Choice,2,1650902747408,Die UN rief zur Stärkung von Kleinbauern und das Bildungssystem auf.,filler,145,ungram,F,NULL
1650903164,861592159a36835e6813527b1adf2b85,PennController,79,0,critical,NULL,PennController,80,_Trial_,End,1650902747409,Die UN rief zur Stärkung von Kleinbauern und das Bildungssystem auf.,filler,145,ungram,F,NULL
1650903164,861592159a36835e6813527b1adf2b85,PennController,68,0,critical,NULL,PennController,69,_Trial_,Start,1650902747410,Die EU die Internet regulieren will angeblich.,filler,134,ungram,F,NULL
1650903164,861592159a36835e6813527b1adf2b85,PennController,68,0,critical,NULL,Scale,rating,Choice,1,1650902752425,Die EU die Internet regulieren will angeblich.,filler,134,ungram,F,NULL
1650903164,861592159a36835e6813527b1adf2b85,PennController,68,0,critical,NULL,PennController,69,_Trial_,End,1650902752425,Die EU die Internet regulieren will angeblich.,filler,134,ungram,F,NULL
1650903164,861592159a36835e6813527b1adf2b85,PennController,9,0,critical,NULL,PennController,10,_Trial_,Start,1650902752426,Erik und du haben die Schlüssel vielleicht zuhause vergessen.,32_3,5,gram,F,NULL
1650903164,861592159a36835e6813527b1adf2b85,PennController,9,0,critical,NULL,Scale,rating,Choice,3,1650902761732,Erik und du haben die Schlüssel vielleicht zuhause vergessen.,32_3,5,gram,F,NULL
1650903164,861592159a36835e6813527b1adf2b85,PennController,9,0,critical,NULL,PennController,10,_Trial_,End,1650902761733,Erik und du haben die Schlüssel vielleicht zuhause vergessen.,32_3,5,gram,F,NULL
1650903164,861592159a36835e6813527b1adf2b85,PennController,23,0,critical,NULL,PennController,24,_Trial_,Start,1650902761733,Deine Frau und du habe die neue Veranda bestimmt schon einmal gesehen.,32_1,19,ungram,F,NULL
1650903164,861592159a36835e6813527b1adf2b85,PennController,23,0,critical,NULL,Scale,rating,Choice,2,1650902768640,Deine Frau und du habe die neue Veranda bestimmt schon einmal gesehen.,32_1,19,ungram,F,NULL
1650903164,861592159a36835e6813527b1adf2b85,PennController,23,0,critical,NULL,PennController,24,_Trial_,End,1650902768641,Deine Frau und du habe die neue Veranda bestimmt schon einmal gesehen.,32_1,19,ungram,F,NULL
1650903164,861592159a36835e6813527b1adf2b85,PennController,73,0,critical,NULL,PennController,74,_Trial_,Start,1650902768642,Abendessen nach dem sie immer spazieren ging. ,filler,139,ungram,F,NULL
1650903164,861592159a36835e6813527b1adf2b85,PennController,73,0,critical,NULL,Scale,rating,Choice,1,1650902773134,Abendessen nach dem sie immer spazieren ging. ,filler,139,ungram,F,NULL
1650903164,861592159a36835e6813527b1adf2b85,PennController,73,0,critical,NULL,PennController,74,_Trial_,End,1650902773135,Abendessen nach dem sie immer spazieren ging. ,filler,139,ungram,F,NULL
1650903164,861592159a36835e6813527b1adf2b85,PennController,17,0,critical,NULL,PennController,18,_Trial_,Start,1650902773135,Deine Schwester und du habe immer gerne im Garten gespielt.,32_1,13,ungram,F,NULL
